File: data/KatalysatorArgon.txt
time/s	Ewe/V	<I>/mA	cycle number
98.2492	0.0808972	0.00107902	1
99.2826	0.075818	0.00014592	1
100.616	0.0691465	-0.000300228	1
101.949	0.0625006	-0.000587015	1
103.282	0.0557912	-0.000733338	1
104.616	0.0491375	-0.00099282	1
105.949	0.042444	-0.0011201	1
107.282	0.0358104	-0.00121967	1
108.615	0.0291388	-0.00130537	1
109.982	0.022298	-0.00134307	1
111.348	0.015525	-0.00144592	1
112.682	0.00880304	-0.00150347	1
114.048	0.0019229	-0.00146463	1
115.548	-0.00552138	-0.00159576	1
116.881	-0.0122118	-0.00165443	1
118.215	-0.0188532	-0.00169172	1
119.548	-0.0255373	-0.00166987	1
121.015	-0.0329	-0.00168007	1
122.414	-0.0398999	-0.00178511	1
123.814	-0.0468857	-0.00182217	1
125.148	-0.0535383	-0.00181617	1
126.681	-0.0612213	-0.00186558	1
128.147	-0.0685405	-0.00186481	1
129.481	-0.0752105	-0.0019082	1
130.814	-0.0818975	-0.0018782	1
132.347	-0.089578	-0.00190234	1
133.747	-0.0965158	-0.00184564	1
135.28	-0.104174	-0.00195351	1
136.647	-0.111024	-0.00197507	1
138.014	-0.117863	-0.00194637	1
139.347	-0.124557	-0.0019257	1
140.68	-0.131222	-0.00196451	1
142.013	-0.13791	-0.0020169	1
143.513	-0.145391	-0.00197102	1
145.113	-0.153433	-0.00188166	1
146.646	-0.161069	-0.00198676	1
148.246	-0.169001	-0.00203568	1
149.613	-0.175815	-0.00207795	1
150.946	-0.182552	-0.00209903	1
152.279	-0.18919	-0.00212598	1
153.613	-0.195887	-0.00214817	1
154.946	-0.202529	-0.0021756	1
156.279	-0.209235	-0.002209	1
157.612	-0.215866	-0.0021943	1
159.079	-0.223213	-0.00227263	1
160.412	-0.229881	-0.00228899	1
161.812	-0.236876	-0.00226601	1
163.145	-0.243534	-0.00237259	1
164.479	-0.250149	-0.00240716	1
165.812	-0.256824	-0.00244186	1
167.145	-0.263505	-0.00248125	1
168.478	-0.270207	-0.0025198	1
169.812	-0.276905	-0.00254473	1
171.145	-0.283501	-0.00257528	1
172.478	-0.290151	-0.00260961	1
173.811	-0.296852	-0.00259493	1
175.411	-0.304865	-0.00263495	1
176.745	-0.311536	-0.00269838	1
178.144	-0.31864	-0.0026557	1
179.678	-0.326257	-0.00272088	1
181.144	-0.333489	-0.00279083	1
182.478	-0.34019	-0.00282109	1
183.811	-0.346836	-0.00284594	1
185.144	-0.353508	-0.00287321	1
186.477	-0.360188	-0.00289629	1
187.811	-0.366863	-0.00292541	1
189.144	-0.373511	-0.0029498	1
190.61	-0.380828	-0.00287906	1
192.01	-0.38791	-0.00300417	1
193.377	-0.394697	-0.00298189	1
194.743	-0.401574	-0.00305878	1
196.077	-0.408268	-0.00308944	1
197.41	-0.414834	-0.00310969	1
198.743	-0.421504	-0.00306385	1
200.077	-0.428217	-0.00317468	1
201.41	-0.434844	-0.00321146	1
202.743	-0.441501	-0.00324229	1
204.076	-0.448171	-0.00328659	1
205.41	-0.45482	-0.00332378	1
206.743	-0.461529	-0.00334413	1
208.076	-0.468171	-0.00337956	1
209.409	-0.474901	-0.00341059	1
210.743	-0.481574	-0.00343297	1
212.076	-0.488215	-0.00345809	1
213.409	-0.494855	-0.00347737	1
214.742	-0.501564	-0.00350074	1
216.076	-0.508214	-0.00353257	1
217.509	-0.51539	-0.00346626	1
218.942	-0.522497	-0.00359292	1
220.309	-0.529305	-0.00359663	1
221.675	-0.536187	-0.00365935	1
223.008	-0.542844	-0.00368924	1
224.342	-0.549479	-0.00373058	1
225.742	-0.556548	-0.00368755	1
227.375	-0.564698	-0.00358448	1
229.075	-0.573193	-0.0038793	1
230.408	-0.579858	-0.00392108	1
231.741	-0.586531	-0.00396437	1
233.075	-0.593174	-0.00401416	1
234.408	-0.599837	-0.00406275	1
235.741	-0.606502	-0.00411963	1
237.074	-0.613125	-0.00416581	1
238.408	-0.619849	-0.00421678	1
239.741	-0.626528	-0.00427155	1
241.074	-0.633185	-0.00432715	1
242.407	-0.639785	-0.00437681	1
243.741	-0.64648	-0.00443775	1
245.074	-0.653195	-0.00439947	1
246.407	-0.659832	-0.00456131	1
247.74	-0.666542	-0.00462301	1
249.074	-0.673191	-0.00468537	1
250.407	-0.679865	-0.0047626	1
251.74	-0.686516	-0.00482844	1
253.073	-0.693172	-0.00489285	1
254.407	-0.699868	-0.00496099	1
255.74	-0.706525	-0.00502951	1
257.073	-0.7132	-0.0050898	1
258.406	-0.719869	-0.00515854	1
259.74	-0.726533	-0.0052247	1
261.073	-0.733237	-0.00530049	1
262.406	-0.739902	-0.00538719	1
263.739	-0.746567	-0.00546969	1
265.073	-0.753224	-0.00556295	1
266.406	-0.759874	-0.00566771	1
267.739	-0.766558	-0.00578116	1
269.072	-0.773174	-0.0058937	1
270.406	-0.779872	-0.00602273	1
271.739	-0.786551	-0.00616813	1
273.072	-0.793237	-0.00631681	1
274.405	-0.799841	-0.00647793	1
275.739	-0.806597	-0.00666332	1
277.072	-0.813199	-0.00683878	1
278.405	-0.819848	-0.00702395	1
279.738	-0.826528	-0.00722591	1
281.072	-0.83319	-0.00743909	1
282.405	-0.839861	-0.00766518	1
283.738	-0.846536	-0.00790915	1
285.071	-0.8532	-0.00817133	1
286.405	-0.85984	-0.00843892	1
287.738	-0.866543	-0.00872744	1
289.071	-0.873113	-0.00903506	1
290.404	-0.87984	-0.00934134	1
291.738	-0.886531	-0.00966409	1
293.071	-0.893138	-0.00998965	1
294.404	-0.899849	-0.0103226	1
295.737	-0.906535	-0.0106663	1
297.071	-0.913189	-0.0110555	1
298.171	-0.918679	-0.011261	1
298.313	-0.918997	-0.0101258	1
299.346	-0.913832	-0.00812206	1
300.68	-0.907177	-0.00688437	1
302.013	-0.90052	-0.00598139	1
303.346	-0.893848	-0.00523615	1
304.679	-0.887123	-0.00462184	1
306.013	-0.880505	-0.00410523	1
307.346	-0.873816	-0.00366301	1
308.679	-0.867155	-0.00327219	1
310.012	-0.860509	-0.00292055	1
311.346	-0.853823	-0.00260992	1
312.679	-0.847146	-0.00232507	1
314.012	-0.840504	-0.00206681	1
315.345	-0.833859	-0.00183646	1
316.679	-0.827174	-0.0016237	1
318.012	-0.820549	-0.00141775	1
319.345	-0.813895	-0.00121054	1
320.678	-0.807193	-0.00076363	1
322.012	-0.800474	-0.000615835	1
323.345	-0.793852	-0.000488821	1
324.678	-0.787228	-0.000369897	1
326.011	-0.780529	-0.000269071	1
327.345	-0.773871	-0.000184592	1
328.678	-0.767174	-0.000107071	1
330.011	-0.760518	-3.42436e-05	1
331.344	-0.753895	2.36361e-05	1
332.678	-0.747243	7.02551e-05	1
334.011	-0.740565	0.000107479	1
335.344	-0.733872	0.000146655	1
336.678	-0.727235	4.87201e-05	1
338.011	-0.720571	0.000192382	1
339.344	-0.713886	0.0002942	1
340.677	-0.707212	0.000236708	1
342.011	-0.700539	0.00025016	1
343.344	-0.693895	0.000257872	1
344.677	-0.687205	0.000264482	1
346.144	-0.679833	0.000280156	1
347.477	-0.67318	0.00029265	1
348.81	-0.666539	0.000297453	1
350.143	-0.659882	0.00030293	1
351.477	-0.653215	0.000314995	1
352.81	-0.646489	0.000366434	1
354.143	-0.639864	0.000327312	1
355.476	-0.633187	0.000350346	1
356.81	-0.626506	0.000359292	1
358.143	-0.619844	0.000369144	1
359.476	-0.613158	0.000382525	1
360.809	-0.606511	0.000393163	1
362.143	-0.599859	0.000406571	1
363.476	-0.593204	0.000418255	1
364.809	-0.586489	0.00043374	1
366.142	-0.579848	0.000446575	1
367.476	-0.573154	0.000463358	1
368.809	-0.566511	0.000474641	1
370.142	-0.559857	0.000480679	1
371.475	-0.553175	0.000499655	1
372.809	-0.546518	0.000518101	1
374.142	-0.539847	0.000531853	1
375.475	-0.533172	0.000543894	1
376.808	-0.526517	0.00055541	1
378.142	-0.519853	0.000570897	1
379.475	-0.513203	0.000583776	1
380.808	-0.506537	0.000592609	1
382.141	-0.499791	0.000604958	1
383.475	-0.493194	0.000610799	1
384.808	-0.486517	0.000617339	1
386.141	-0.479867	0.000620009	1
387.474	-0.473208	0.000616694	1
388.808	-0.466532	0.000618611	1
390.141	-0.459824	0.000620877	1
391.474	-0.453171	0.000618401	1
392.874	-0.446159	0.000514635	1
394.274	-0.439187	0.000623125	1
395.607	-0.432521	0.00061645	1
396.941	-0.425851	0.0006145	1
398.274	-0.419167	0.000613485	1
399.607	-0.412476	0.000611917	1
400.94	-0.405869	0.000604562	1
402.274	-0.399216	0.000600299	1
403.607	-0.39251	0.000551707	1
404.94	-0.385853	0.000592937	1
406.273	-0.379163	0.00059098	1
407.607	-0.372503	0.000587555	1
408.94	-0.365818	0.000585533	1
410.273	-0.359194	0.000584108	1
411.606	-0.352522	0.000584002	1
412.94	-0.345844	0.000578947	1
414.273	-0.339173	0.000584796	1
415.606	-0.332478	0.000594862	1
416.939	-0.325832	0.000594047	1
418.273	-0.319222	0.00060145	1
419.606	-0.312525	0.000608513	1
420.939	-0.305869	0.00061342	1
422.272	-0.299229	0.000617308	1
423.606	-0.292535	0.000632392	1
424.939	-0.285849	0.000638692	1
426.272	-0.279204	0.000650863	1
427.605	-0.272524	0.000659923	1
428.939	-0.26583	0.000671518	1
430.272	-0.259174	0.000687022	1
431.605	-0.252494	0.00069688	1
432.938	-0.245869	0.000712724	1
434.272	-0.239159	0.000728481	1
435.605	-0.232525	0.000743477	1
436.938	-0.225853	0.000759148	1
438.271	-0.21916	0.000770807	1
439.605	-0.212508	0.000787582	1
440.938	-0.20583	0.000806895	1
442.271	-0.199176	0.000831653	1
443.604	-0.192555	0.000838768	1
444.938	-0.185826	0.000857837	1
446.271	-0.179167	0.000879071	1
447.604	-0.172504	0.000897279	1
448.937	-0.165887	0.000919243	1
450.271	-0.159217	0.000946062	1
451.604	-0.152542	0.000971676	1
452.937	-0.145881	0.000998814	1
454.27	-0.139163	0.00102711	1
455.804	-0.131548	0.00103633	1
457.27	-0.124193	0.00110146	1
458.604	-0.1175	0.00113587	1
459.937	-0.110887	0.00110697	1
461.27	-0.104195	0.00122181	1
462.603	-0.0975252	0.00127373	1
463.937	-0.0908456	0.00132983	1
465.27	-0.0842169	0.0013814	1
466.603	-0.0775168	0.00144505	1
467.936	-0.0708484	0.00151248	1
469.27	-0.0641891	0.00155508	1
470.603	-0.0575637	0.00166197	1
471.936	-0.0508727	0.00174436	1
473.269	-0.0442323	0.00183841	1
474.803	-0.0365038	0.00190422	1
476.202	-0.0295019	0.00206661	1
477.536	-0.0228697	0.00219601	1
478.869	-0.0162155	0.00231536	1
480.202	-0.00952922	0.0024534	1
481.535	-0.00287969	0.00260479	1
482.869	0.00380188	0.00276364	1
484.202	0.0104315	0.00294441	1
485.535	0.0171961	0.00313143	1
486.869	0.0238476	0.00333499	1
488.202	0.0304637	0.00355808	1
489.535	0.0371211	0.00379839	1
490.868	0.0438237	0.00407042	1
492.202	0.0504782	0.00439225	1
493.535	0.0571371	0.00475473	1
494.868	0.0638224	0.00520521	1
496.201	0.0704621	0.00572592	1
497.535	0.0771729	0.0063425	1
498.237	0.0810155	0.00962537	1
498.671	0.0788158	0.00525398	2
500.071	0.0717913	0.00401872	2
501.471	0.0648018	0.00304053	2
502.804	0.058157	0.00240749	2
504.137	0.0514905	0.00191	2
505.537	0.0444649	0.00150759	2
506.87	0.0378293	0.00124452	2
508.337	0.0304513	0.000854448	2
509.67	0.0238067	0.000622757	2
511.003	0.0171195	0.000427786	2
512.403	0.0101121	0.000278655	2
513.803	0.00311769	0.000236445	2
515.27	-0.00422089	-5.23974e-05	2
516.603	-0.0108862	-0.00016258	2
517.936	-0.0175076	-0.000264239	2
519.27	-0.0241677	-0.000350772	2
520.603	-0.030865	-0.00042709	2
521.936	-0.0375496	-0.000503267	2
523.269	-0.0442195	-0.000510571	2
524.603	-0.0508865	-0.000618372	2
525.936	-0.0575146	-0.000666376	2
527.269	-0.064226	-0.000723781	2
528.602	-0.0708512	-0.000747836	2
529.936	-0.0775454	-0.000815807	2
531.269	-0.0842303	-0.000855717	2
532.602	-0.0908734	-0.000868804	2
533.935	-0.0975473	-0.000896754	2
535.269	-0.104179	-0.000925663	2
536.668	-0.111226	-0.000947958	2
538.002	-0.117903	-0.000971964	2
539.335	-0.124546	-0.000999479	2
540.668	-0.131257	-0.00101934	2
542.002	-0.137885	-0.00103675	2
543.335	-0.144562	-0.00105876	2
544.668	-0.151257	-0.00107843	2
546.001	-0.157854	-0.000993382	2
547.335	-0.164559	-0.00111297	2
548.668	-0.171184	-0.00113702	2
550.001	-0.177852	-0.00115519	2
551.334	-0.184518	-0.00117198	2
552.801	-0.191854	-0.00119221	2
554.134	-0.198504	-0.00120878	2
555.467	-0.205186	-0.00122999	2
556.801	-0.211881	-0.00124958	2
558.134	-0.218521	-0.00126584	2
559.467	-0.225197	-0.00128218	2
560.8	-0.23183	-0.00130331	2
562.134	-0.23854	-0.00131766	2
563.6	-0.245867	-0.00126398	2
565.067	-0.253165	-0.00125945	2
566.733	-0.261523	-0.00137857	2
568.067	-0.268207	-0.00138652	2
569.4	-0.274842	-0.0014118	2
570.733	-0.281504	-0.00141792	2
572.066	-0.288173	-0.0014253	2
573.4	-0.294822	-0.00135154	2
574.733	-0.301542	-0.00145778	2
576.066	-0.308183	-0.00146851	2
577.399	-0.31485	-0.0014761	2
578.733	-0.32154	-0.00148698	2
580.266	-0.329166	-0.00131465	2
581.666	-0.336172	-0.00151376	2
582.999	-0.342864	-0.00152669	2
584.332	-0.349552	-0.00153376	2
585.666	-0.356237	-0.00154286	2
586.999	-0.362895	-0.00155081	2
588.332	-0.369512	-0.00156176	2
589.665	-0.376187	-0.00157303	2
590.999	-0.382908	-0.00158185	2
592.332	-0.389552	-0.00159094	2
593.665	-0.396235	-0.00159377	2
595.132	-0.40357	-0.00161085	2
596.465	-0.410196	-0.00154868	2
597.931	-0.417545	-0.00164231	2
599.265	-0.42421	-0.0016547	2
600.598	-0.430889	-0.00166198	2
601.931	-0.437546	-0.00156345	2
603.265	-0.444178	-0.00168883	2
604.598	-0.450904	-0.0016996	2
605.931	-0.457524	-0.00170746	2
607.264	-0.464224	-0.00172032	2
608.598	-0.470866	-0.00172683	2
609.931	-0.477559	-0.00173689	2
611.264	-0.484228	-0.00174143	2
612.597	-0.490881	-0.00175257	2
613.997	-0.497851	-0.00167811	2
615.397	-0.504851	-0.00177619	2
616.73	-0.511537	-0.00179348	2
618.064	-0.518197	-0.00180252	2
619.397	-0.52485	-0.00181709	2
620.73	-0.531515	-0.0018302	2
622.063	-0.538152	-0.00184266	2
623.397	-0.544847	-0.00185509	2
624.73	-0.551524	-0.00187622	2
626.063	-0.558188	-0.00190527	2
627.396	-0.564841	-0.00190111	2
628.73	-0.57151	-0.00191638	2
630.196	-0.57885	-0.00192558	2
631.529	-0.585514	-0.00197579	2
632.863	-0.592222	-0.00199097	2
634.263	-0.599183	-0.00188412	2
635.663	-0.606193	-0.00203238	2
636.996	-0.612848	-0.00201003	2
638.329	-0.619501	-0.00208217	2
639.662	-0.626165	-0.00211632	2
640.996	-0.632843	-0.00213945	2
642.329	-0.63953	-0.00216722	2
643.662	-0.64622	-0.00219933	2
644.995	-0.652868	-0.00222908	2
646.329	-0.659571	-0.00226617	2
647.662	-0.66619	-0.00230061	2
648.995	-0.672869	-0.00234118	2
650.328	-0.679528	-0.00238163	2
651.662	-0.68619	-0.00244727	2
652.995	-0.692859	-0.00249411	2
654.328	-0.699478	-0.00254637	2
655.661	-0.706181	-0.00257767	2
656.995	-0.712872	-0.00262474	2
658.328	-0.719507	-0.00254694	2
659.661	-0.726231	-0.00273827	2
660.994	-0.732904	-0.00280998	2
662.328	-0.739537	-0.00287552	2
663.694	-0.746398	-0.00284642	2
665.061	-0.753264	-0.00304755	2
666.394	-0.759895	-0.00314505	2
667.727	-0.766492	-0.00325146	2
669.061	-0.773163	-0.00334381	2
670.394	-0.779848	-0.00347365	2
671.727	-0.786574	-0.00360999	2
673.06	-0.79319	-0.00373975	2
674.394	-0.799816	-0.00388197	2
675.727	-0.806547	-0.00405605	2
677.06	-0.813147	-0.00421867	2
678.393	-0.819866	-0.00440172	2
679.727	-0.826543	-0.00459734	2
681.06	-0.833199	-0.00479514	2
682.393	-0.839866	-0.00501415	2
683.726	-0.846527	-0.00523689	2
685.06	-0.853162	-0.00547994	2
686.393	-0.859856	-0.00573724	2
687.726	-0.866503	-0.00601663	2
689.059	-0.873177	-0.00630267	2
690.393	-0.879799	-0.00660919	2
691.726	-0.886466	-0.00692128	2
693.059	-0.893217	-0.007265	2
694.392	-0.899876	-0.00761546	2
695.726	-0.906519	-0.00796959	2
697.059	-0.913183	-0.00834576	2
698.159	-0.918665	-0.00866459	2
698.301	-0.918997	-0.00763257	2
699.335	-0.913824	-0.00572581	2
700.668	-0.907194	-0.00476864	2
702.001	-0.900569	-0.00405784	2
703.334	-0.893839	-0.0035057	2
704.668	-0.887126	-0.00302574	2
706.001	-0.880475	-0.00263409	2
707.334	-0.873805	-0.00228891	2
708.667	-0.867196	-0.00198475	2
710.001	-0.860475	-0.00170906	2
711.334	-0.853826	-0.00147737	2
712.667	-0.847161	-0.00124691	2
714	-0.840495	-0.00115867	2
715.467	-0.833197	-0.000849	2
716.8	-0.826543	-0.000689542	2
718.133	-0.819855	-0.000538837	2
719.467	-0.813174	-0.000400595	2
720.8	-0.806468	-0.000278666	2
722.133	-0.799871	-0.00016472	2
723.466	-0.793196	-7.11303e-05	2
724.866	-0.786182	4.17695e-06	2
726.2	-0.779545	0.000102235	2
727.533	-0.772822	0.000145339	2
729	-0.765496	0.000213156	2
730.466	-0.758192	0.000273568	2
731.799	-0.751576	0.000304331	2
733.133	-0.744882	0.00033518	2
734.466	-0.738188	0.000368036	2
735.799	-0.731537	0.000377308	2
737.132	-0.724812	0.000423459	2
738.466	-0.718197	0.000421889	2
739.799	-0.711521	0.000411085	2
741.199	-0.704539	0.000260465	2
742.532	-0.69787	0.000444662	2
743.865	-0.691221	0.000450283	2
745.199	-0.684482	0.000459879	2
746.532	-0.677841	0.00047005	2
747.865	-0.671197	0.000479981	2
749.198	-0.664552	0.000495026	2
750.532	-0.657856	0.000497727	2
751.865	-0.651154	0.000512465	2
753.198	-0.644514	0.000521869	2
754.531	-0.63783	0.000533999	2
755.865	-0.631182	0.00054842	2
757.198	-0.624546	0.000553874	2
758.531	-0.617857	0.000567156	2
759.864	-0.611151	0.000580518	2
761.198	-0.604515	0.000585597	2
762.531	-0.597874	0.000595938	2
763.864	-0.591175	0.000606402	2
765.197	-0.584477	0.000613922	2
766.531	-0.577799	0.000624463	2
767.864	-0.571149	0.000625312	2
769.197	-0.564487	0.000635271	2
770.53	-0.557876	0.00064641	2
771.864	-0.551136	0.000648472	2
773.197	-0.544502	0.000657081	2
774.53	-0.53784	0.000664278	2
775.863	-0.531167	0.000669719	2
777.197	-0.524474	0.000670622	2
778.53	-0.517874	0.000676873	2
779.863	-0.51125	0.00068375	2
781.196	-0.504499	0.000670371	2
782.53	-0.497821	0.000671666	2
783.93	-0.490861	0.000598902	2
785.329	-0.48386	0.000684182	2
786.663	-0.477172	0.000688939	2
787.996	-0.470551	0.000680538	2
789.329	-0.46388	0.000673643	2
790.662	-0.457189	0.000646876	2
791.996	-0.450527	0.000670456	2
793.329	-0.443855	0.000677636	2
794.662	-0.437172	0.000646967	2
795.995	-0.430495	0.000645695	2
797.329	-0.423828	0.000566307	2
798.662	-0.417198	0.000617372	2
799.995	-0.410471	0.000624745	2
801.395	-0.4035	0.00048116	2
802.795	-0.396577	0.00062587	2
804.128	-0.389872	0.000616051	2
805.462	-0.3832	0.000602342	2
806.795	-0.376506	0.000601738	2
808.128	-0.369845	0.000475178	2
809.461	-0.363203	0.000595603	2
810.795	-0.356547	0.000592491	2
812.128	-0.349816	0.00059704	2
813.461	-0.34313	0.000590159	2
814.794	-0.336474	0.000600054	2
816.128	-0.329794	0.000513247	2
817.461	-0.323212	0.000604253	2
818.794	-0.316544	0.00060304	2
820.261	-0.309228	0.000602388	2
821.594	-0.302488	0.00061779	2
822.927	-0.295837	0.000623612	2
824.26	-0.289112	0.000631632	2
825.627	-0.282342	0.00056433	2
826.994	-0.275556	0.000648595	2
828.327	-0.268857	0.000577674	2
829.793	-0.261505	0.00066847	2
831.127	-0.254894	0.000680979	2
832.46	-0.24824	0.000697982	2
833.793	-0.24159	0.000706679	2
835.126	-0.234858	0.000717366	2
836.526	-0.227856	0.000645032	2
837.926	-0.220868	0.000742789	2
839.26	-0.21418	0.000753905	2
840.593	-0.207545	0.000770311	2
841.926	-0.200887	0.000782356	2
843.259	-0.194212	0.000797687	2
844.826	-0.186343	0.00076538	2
846.192	-0.179516	0.000826993	2
847.526	-0.172906	0.00084766	2
848.859	-0.166243	0.000837324	2
850.192	-0.159539	0.000870105	2
851.525	-0.152878	0.000899734	2
852.859	-0.146215	0.000919145	2
854.192	-0.139537	0.000939411	2
855.525	-0.132888	0.000846778	2
856.859	-0.126269	0.000977998	2
858.192	-0.119594	0.00102041	2
859.525	-0.112895	0.00104469	2
860.858	-0.10618	0.00107791	2
862.192	-0.0994935	0.00111318	2
863.525	-0.0928874	0.00115064	2
864.858	-0.086213	0.00118963	2
866.191	-0.0794859	0.00123596	2
867.558	-0.0727172	0.00130048	2
868.991	-0.0655144	0.00116984	2
870.458	-0.0582542	0.00135203	2
871.791	-0.0515367	0.00146766	2
873.124	-0.0449023	0.00153647	2
874.457	-0.0382318	0.00161349	2
875.791	-0.0315704	0.00169221	2
877.124	-0.0249156	0.00170212	2
878.591	-0.017566	0.00189138	2
879.924	-0.0109084	0.00199271	2
881.257	-0.00425071	0.0020899	2
882.724	0.00313811	0.00216435	2
884.124	0.0101522	0.00239559	2
885.523	0.0171522	0.00255159	2
886.857	0.0238317	0.00271824	2
888.19	0.030468	0.00289729	2
889.523	0.0371285	0.00309374	2
890.856	0.0438081	0.00331294	2
892.19	0.0504523	0.00357147	2
893.523	0.0571293	0.00386046	2
894.856	0.0638502	0.00420819	2
896.189	0.0704773	0.00462811	2
897.523	0.0771394	0.00512114	2
898.226	0.0810766	0.00768416	2
898.659	0.0787831	0.00412081	3
899.992	0.0721237	0.00313753	3
901.325	0.0654949	0.00246271	3
902.659	0.0588058	0.0019488	3
903.992	0.0521763	0.0015408	3
905.325	0.0454599	0.00120171	3
906.658	0.038831	0.000924898	3
908.058	0.0317683	0.000767144	3
909.458	0.024822	0.00047877	3
910.792	0.0181249	0.000313075	3
912.125	0.01146	0.000170227	3
913.458	0.00479186	3.64051e-05	3
914.791	-0.00187296	-7.16205e-05	3
916.125	-0.00855983	-0.000168048	3
917.524	-0.0155318	-0.000170025	3
918.924	-0.0225128	-0.000331124	3
920.391	-0.0298699	-0.000402739	3
921.724	-0.036532	-0.000462893	3
923.058	-0.0432242	-0.00051323	3
924.391	-0.0499188	-0.000560684	3
925.724	-0.0565431	-0.000599857	3
927.057	-0.0632413	-0.000638162	3
928.391	-0.0698728	-0.000672554	3
929.724	-0.0765095	-0.000705309	3
931.057	-0.0832526	-0.000735846	3
932.39	-0.0898745	-0.00074376	3
933.724	-0.096533	-0.000781852	3
935.057	-0.103224	-0.000808244	3
936.39	-0.109872	-0.00082679	3
937.723	-0.116579	-0.000843184	3
939.057	-0.123213	-0.000866242	3
940.39	-0.129876	-0.00088061	3
941.723	-0.136547	-0.000899258	3
943.056	-0.143223	-0.000912593	3
944.39	-0.149906	-0.000930361	3
945.723	-0.156511	-0.000945386	3
947.056	-0.16323	-0.000959493	3
948.389	-0.169894	-0.000977438	3
949.723	-0.176524	-0.000994339	3
951.056	-0.18318	-0.000908118	3
952.389	-0.189848	-0.00102369	3
953.722	-0.196509	-0.00103368	3
955.056	-0.203209	-0.00105082	3
956.389	-0.209914	-0.00106901	3
957.722	-0.216533	-0.00108133	3
959.055	-0.223202	-0.00109362	3
960.389	-0.229879	-0.00111094	3
961.722	-0.236592	-0.00112411	3
963.055	-0.243202	-0.0011399	3
964.388	-0.249862	-0.00111751	3
965.722	-0.256503	-0.0011671	3
967.055	-0.263186	-0.00118299	3
968.388	-0.269875	-0.00119283	3
969.721	-0.276538	-0.00120237	3
971.055	-0.283191	-0.00121598	3
972.388	-0.289839	-0.00122703	3
973.721	-0.296554	-0.0012403	3
975.054	-0.303207	-0.00124787	3
976.388	-0.309876	-0.00125504	3
977.721	-0.31651	-0.00126678	3
979.054	-0.323213	-0.00127644	3
980.387	-0.329844	-0.00128187	3
981.721	-0.336528	-0.00129576	3
983.121	-0.343539	-0.00120815	3
984.654	-0.351204	-0.00131497	3
985.987	-0.357873	-0.00132469	3
987.32	-0.364526	-0.00133499	3
988.654	-0.371177	-0.00134293	3
989.987	-0.377866	-0.00123179	3
991.32	-0.38453	-0.00135819	3
992.653	-0.39121	-0.0013734	3
993.987	-0.397903	-0.00137829	3
995.32	-0.404544	-0.00138974	3
996.653	-0.411196	-0.00139869	3
997.986	-0.417857	-0.00141096	3
999.32	-0.42453	-0.00142591	3
1000.65	-0.431227	-0.00143709	3
1001.99	-0.437844	-0.00144348	3
1003.32	-0.444481	-0.00145126	3
1004.65	-0.451212	-0.00145988	3
1005.99	-0.45788	-0.00146638	3
1007.32	-0.464555	-0.00147939	3
1008.65	-0.471272	-0.00138299	3
1009.99	-0.47788	-0.001494	3
1011.32	-0.484528	-0.00149882	3
1012.65	-0.491185	-0.00150984	3
1013.99	-0.497887	-0.00143376	3
1015.32	-0.504533	-0.00153066	3
1016.65	-0.511189	-0.00141333	3
1017.99	-0.517879	-0.00155343	3
1019.32	-0.524519	-0.00156327	3
1020.65	-0.531197	-0.00157894	3
1021.98	-0.5378	-0.00158753	3
1023.32	-0.544501	-0.00159908	3
1024.65	-0.551224	-0.00161736	3
1025.98	-0.557848	-0.0016363	3
1027.32	-0.564501	-0.00165015	3
1028.65	-0.571174	-0.0016656	3
1029.98	-0.577827	-0.00168164	3
1031.32	-0.58451	-0.00170119	3
1032.65	-0.591244	-0.00171983	3
1033.98	-0.597848	-0.00174458	3
1035.32	-0.604451	-0.00177007	3
1036.65	-0.611184	-0.00178937	3
1037.98	-0.61782	-0.00181022	3
1039.32	-0.624497	-0.0018358	3
1040.65	-0.63118	-0.0018655	3
1041.98	-0.637861	-0.0018928	3
1043.32	-0.644515	-0.00191665	3
1044.65	-0.65118	-0.00194764	3
1045.98	-0.657861	-0.0019822	3
1047.32	-0.664547	-0.0020146	3
1048.65	-0.671122	-0.00204766	3
1049.98	-0.677876	-0.00209541	3
1051.32	-0.6845	-0.00213188	3
1052.65	-0.691182	-0.00217166	3
1053.98	-0.697786	-0.00221063	3
1055.32	-0.704538	-0.00226264	3
1056.65	-0.71124	-0.00231291	3
1057.98	-0.717805	-0.00235944	3
1059.32	-0.724525	-0.00241874	3
1060.65	-0.731194	-0.00247707	3
1061.98	-0.737889	-0.00255156	3
1063.32	-0.74454	-0.0026187	3
1064.65	-0.751228	-0.00269381	3
1065.98	-0.757849	-0.00278239	3
1067.32	-0.764504	-0.00288099	3
1068.65	-0.771203	-0.00297908	3
1069.98	-0.777859	-0.00308161	3
1071.32	-0.784539	-0.00319911	3
1072.65	-0.791204	-0.00332286	3
1073.98	-0.797833	-0.00345125	3
1075.31	-0.804519	-0.00359495	3
1076.71	-0.811554	-0.00367579	3
1078.11	-0.8185	-0.0039189	3
1079.45	-0.825222	-0.00408604	3
1080.78	-0.831837	-0.00427022	3
1082.11	-0.838507	-0.0044598	3
1083.45	-0.845181	-0.00466283	3
1084.78	-0.851815	-0.00488492	3
1086.11	-0.858492	-0.00511114	3
1087.45	-0.865188	-0.00535148	3
1088.78	-0.871809	-0.00561118	3
1090.11	-0.878467	-0.00587467	3
1091.45	-0.885176	-0.0061599	3
1092.78	-0.891837	-0.00647528	3
1094.11	-0.898524	-0.00678196	3
1095.45	-0.905179	-0.00711611	3
1096.78	-0.91185	-0.00746585	3
1098.01	-0.918018	-0.00781268	3
1098.29	-0.918974	-0.00680226	3
1099.32	-0.913846	-0.00498072	3
1100.66	-0.907182	-0.00408651	3
1101.99	-0.900498	-0.00344611	3
1103.32	-0.893875	-0.00293102	3
1104.66	-0.887127	-0.00250808	3
1105.99	-0.880485	-0.00216018	3
1107.32	-0.873814	-0.00185276	3
1108.66	-0.867176	-0.00157738	3
1109.99	-0.860476	-0.00133307	3
1111.32	-0.853828	-0.00112031	3
1112.66	-0.847165	-0.000922854	3
1113.99	-0.840524	-0.000740274	3
1115.32	-0.833825	-0.000579188	3
1116.66	-0.82723	-0.000435772	3
1117.99	-0.820512	-0.000301661	3
1119.32	-0.813849	-0.000174396	3
1120.79	-0.806545	-5.47486e-05	3
1122.12	-0.799843	3.94302e-05	3
1123.45	-0.793196	0.000122997	3
1124.79	-0.786535	0.000198461	3
1126.12	-0.779821	0.000257989	3
1127.45	-0.773178	0.000313932	3
1128.79	-0.766543	0.0003633	3
1130.12	-0.759857	0.000402762	3
1131.45	-0.753193	0.000434283	3
1132.79	-0.746551	0.000457753	3
1134.12	-0.739872	0.000477627	3
1135.45	-0.733184	0.000437726	3
1136.79	-0.72645	0.000506638	3
1138.12	-0.719821	0.00052017	3
1139.45	-0.713163	0.000524554	3
1140.79	-0.706559	0.000530535	3
1142.12	-0.699901	0.000532997	3
1143.45	-0.693156	0.000538562	3
1144.79	-0.686482	0.000540824	3
1146.12	-0.679845	0.000546989	3
1147.45	-0.673157	0.000546104	3
1148.79	-0.666494	0.000544315	3
1150.12	-0.659803	0.000548431	3
1151.45	-0.653133	0.000559143	3
1152.79	-0.646489	0.000560433	3
1154.12	-0.639801	0.000560095	3
1155.45	-0.633179	0.000575623	3
1156.79	-0.626508	0.000579484	3
1158.12	-0.61981	0.000583572	3
1159.45	-0.613179	0.000584945	3
1160.79	-0.606485	0.000589535	3
1162.12	-0.599882	0.000462613	3
1163.45	-0.593185	0.000540727	3
1164.79	-0.586468	0.000581345	3
1166.12	-0.579876	0.000607595	3
1167.45	-0.573169	0.000612867	3
1168.79	-0.566491	0.000616173	3
1170.12	-0.559844	0.000614456	3
1171.52	-0.552905	0.000517654	3
1172.92	-0.54587	0.000624185	3
1174.25	-0.539183	0.000625047	3
1175.58	-0.532553	0.000629097	3
1176.92	-0.525791	0.000634215	3
1178.25	-0.519199	0.000619321	3
1179.58	-0.512515	0.000638464	3
1180.92	-0.505808	0.00062391	3
1182.25	-0.499163	0.000640468	3
1183.58	-0.492513	0.000643467	3
1184.92	-0.485828	0.000637178	3
1186.25	-0.479165	0.000634894	3
1187.58	-0.472541	0.000633831	3
1188.92	-0.465837	0.000628332	3
1190.25	-0.459186	0.000623365	3
1191.58	-0.452539	0.000618885	3
1192.92	-0.445846	0.000614625	3
1194.25	-0.439197	0.000606735	3
1195.58	-0.432482	0.000590956	3
1196.92	-0.425901	0.00059882	3
1198.25	-0.419212	0.000590466	3
1199.58	-0.412508	0.000586595	3
1200.92	-0.405891	0.00058469	3
1202.25	-0.399214	0.000579657	3
1203.58	-0.392536	0.000578159	3
1204.92	-0.385894	0.000574327	3
1206.25	-0.379213	0.000574329	3
1207.58	-0.37254	0.000567973	3
1208.92	-0.365846	0.000530739	3
1210.25	-0.359194	0.00057748	3
1211.58	-0.352512	0.000555275	3
1212.92	-0.345861	0.000549642	3
1214.25	-0.339183	0.000568408	3
1215.58	-0.332496	0.000578736	3
1216.92	-0.325905	0.000576437	3
1218.25	-0.319205	0.000584303	3
1219.58	-0.312556	0.000590152	3
1220.92	-0.305856	0.000596142	3
1222.25	-0.299196	0.000597849	3
1223.58	-0.292519	0.000610967	3
1224.92	-0.285812	0.00058011	3
1226.38	-0.278508	0.000626559	3
1227.72	-0.271878	0.000633947	3
1229.05	-0.265204	0.000640597	3
1230.38	-0.258499	0.000653559	3
1231.71	-0.251834	0.000662865	3
1233.05	-0.24521	0.00067377	3
1234.38	-0.238539	0.000684993	3
1235.71	-0.231843	0.000697283	3
1237.05	-0.225187	0.000709056	3
1238.51	-0.217853	0.000721188	3
1239.85	-0.211202	0.000732879	3
1241.18	-0.204534	0.000747472	3
1242.51	-0.197867	0.000757323	3
1243.85	-0.191189	0.000771253	3
1245.18	-0.184509	0.000734487	3
1246.51	-0.177848	0.000799867	3
1247.85	-0.171198	0.000815022	3
1249.18	-0.164545	0.000830684	3
1250.51	-0.15787	0.000850685	3
1251.85	-0.151249	0.000866485	3
1253.18	-0.144574	0.000883379	3
1254.51	-0.137886	0.000823836	3
1255.98	-0.130544	0.000927822	3
1257.31	-0.123908	0.00094983	3
1258.65	-0.11722	0.000971725	3
1259.98	-0.110533	0.00099868	3
1261.31	-0.103882	0.00102671	3
1262.65	-0.0971901	0.00105793	3
1263.98	-0.0905549	0.00108997	3
1265.31	-0.083877	0.00110708	3
1266.71	-0.0768503	0.00112542	3
1268.11	-0.0698797	0.00121988	3
1269.48	-0.0631292	0.0011527	3
1270.91	-0.055864	0.00125044	3
1272.38	-0.0485672	0.00137528	3
1273.71	-0.0418946	0.00143508	3
1275.05	-0.0352472	0.00150586	3
1276.38	-0.028506	0.00157681	3
1277.71	-0.0218657	0.00165358	3
1279.05	-0.0151879	0.00173939	3
1280.38	-0.00854448	0.00183204	3
1281.71	-0.00188842	0.00193305	3
1283.05	0.00482939	0.0020443	3
1284.58	0.0124372	0.00218992	3
1285.91	0.0191292	0.00232313	3
1287.24	0.0258127	0.00246564	3
1288.58	0.0323994	0.00262785	3
1289.91	0.039107	0.00280483	3
1291.24	0.045816	0.00300319	3
1292.58	0.0524963	0.00323304	3
1293.91	0.0591547	0.00349625	3
1295.24	0.0658166	0.00381294	3
1296.58	0.0724875	0.00419171	3
1297.91	0.0791181	0.00463041	3
1298.21	0.0810346	0.00971504	3