File: data/Katalysator.txt
time/s	Ewe/V	<I>/mA	cycle number
1530.07	0.0763925	0.000613899	1
1531.67	0.0684324	-3.45214e-05	1
1532.87	0.0625072	-0.000194738	1
1533.67	0.0585367	-0.000281683	1
1534.47	0.0544287	-0.000345309	1
1535.27	0.0506415	-0.00040559	1
1536.07	0.0466252	-0.000456254	1
1536.87	0.0424561	-0.000501	1
1537.67	0.0383367	-0.000539139	1
1538.47	0.0344541	-0.000578674	1
1539.27	0.030453	-0.000602895	1
1540.07	0.0263183	-0.000634699	1
1540.87	0.022554	-0.000657351	1
1541.67	0.0183735	-0.000681622	1
1542.47	0.0144259	-0.000700841	1
1543.27	0.0104554	-0.000720114	1
1544.07	0.00631312	-0.000737986	1
1544.87	0.00242661	-0.000754452	1
1545.67	-0.00140645	-0.000770124	1
1546.47	-0.00562892	-0.000788284	1
1547.27	-0.00951161	-0.000800521	1
1548.07	-0.013631	-0.000814414	1
1548.87	-0.0173763	-0.000828675	1
1549.67	-0.0215835	-0.00083918	1
1550.47	-0.0255654	-0.000854338	1
1551.27	-0.0298146	-0.000866482	1
1552.07	-0.0335102	-0.000878765	1
1552.87	-0.0374922	-0.000896959	1
1553.67	-0.0415849	-0.000906805	1
1554.47	-0.0457004	-0.000923792	1
1555.27	-0.049648	-0.000939181	1
1556.07	-0.0534391	-0.000958441	1
1556.87	-0.0577227	-0.000978666	1
1557.67	-0.0616359	-0.000999163	1
1558.47	-0.0654002	-0.00102716	1
1559.67	-0.0714438	-0.00107651	1
1560.47	-0.0754945	-0.00110823	1
1561.27	-0.0794001	-0.00114979	1
1562.07	-0.0834469	-0.00119955	1
1562.87	-0.0876121	-0.00125404	1
1563.67	-0.0916514	-0.00131718	1
1564.47	-0.0956104	-0.00139425	1
1565.27	-0.0994473	-0.00147952	1
1566.07	-0.103521	-0.00158557	1
1566.87	-0.107453	-0.00170327	1
1567.67	-0.111569	-0.00184698	1
1568.47	-0.115738	-0.0020123	1
1569.27	-0.119506	-0.00220321	1
1570.06	-0.123515	-0.0024288	1
1570.86	-0.127508	-0.00269115	1
1571.66	-0.131624	-0.00299973	1
1572.46	-0.135461	-0.0033543	1
1573.26	-0.139484	-0.00376525	1
1574.06	-0.143711	-0.00424154	1
1574.86	-0.147494	-0.00478319	1
1575.66	-0.151614	-0.00540016	1
1576.46	-0.155512	-0.0061053	1
1577.26	-0.159555	-0.00690253	1
1578.06	-0.163674	-0.00779792	1
1578.86	-0.167572	-0.00879049	1
1579.66	-0.171516	-0.00990341	1
1580.86	-0.177639	-0.0118298	1
1581.66	-0.18161	-0.0132477	1
1582.46	-0.185527	-0.0148063	1
1583.26	-0.189459	-0.0165318	1
1584.06	-0.193693	-0.0184059	1
1584.86	-0.197458	-0.020483	1
1585.66	-0.201539	-0.0227486	1
1586.46	-0.205574	-0.0252174	1
1587.26	-0.209461	-0.027918	1
1588.06	-0.213519	-0.0308885	1
1588.86	-0.21747	-0.0341147	1
1589.66	-0.221624	-0.0376781	1
1590.46	-0.225595	-0.0415514	1
1591.26	-0.229565	-0.0457759	1
1592.06	-0.233482	-0.0503753	1
1592.86	-0.237537	-0.0553594	1
1593.66	-0.241431	-0.0607692	1
1594.46	-0.245409	-0.0666432	1
1595.26	-0.249639	-0.0729683	1
1596.06	-0.253335	-0.079766	1
1596.86	-0.257572	-0.0870285	1
1597.66	-0.261463	-0.0948274	1
1598.86	-0.267579	-0.109059	1
1599.66	-0.271618	-0.11677	1
1600.46	-0.275512	-0.126088	1
1601.26	-0.279502	-0.136005	1
1602.06	-0.283331	-0.146432	1
1602.86	-0.287577	-0.157249	1
1603.66	-0.291455	-0.168455	1
1604.46	-0.295437	-0.17999	1
1605.26	-0.299412	-0.191947	1
1606.06	-0.303447	-0.204099	1
1606.86	-0.307448	-0.216541	1
1607.66	-0.311441	-0.229075	1
1608.46	-0.315527	-0.241898	1
1609.26	-0.319352	-0.254768	1
1610.06	-0.323353	-0.267697	1
1610.86	-0.327312	-0.280406	1
1611.66	-0.331347	-0.293318	1
1612.46	-0.33536	-0.306098	1
1613.26	-0.339441	-0.318734	1
1614.06	-0.343488	-0.330907	1
1614.86	-0.347447	-0.343294	1
1615.66	-0.35157	-0.355034	1
1616.46	-0.355552	-0.366522	1
1617.26	-0.3595	-0.377416	1
1618.06	-0.363581	-0.388029	1
1618.86	-0.367594	-0.398514	1
1619.66	-0.371385	-0.408928	1
1620.46	-0.375504	-0.41834	1
1621.26	-0.379387	-0.427587	1
1622.06	-0.383472	-0.435894	1
1622.86	-0.387351	-0.444117	1
1623.66	-0.391573	-0.451514	1
1624.46	-0.395353	-0.459145	1
1625.26	-0.399533	-0.46588	1
1626.06	-0.403504	-0.47299	1
1626.86	-0.407459	-0.479028	1
1627.66	-0.411433	-0.484914	1
1628.46	-0.415675	-0.490582	1
1629.26	-0.4195	-0.495937	1
1630.06	-0.423543	-0.501145	1
1630.86	-0.427491	-0.506254	1
1631.66	-0.431599	-0.511173	1
1632.46	-0.435447	-0.515211	1
1633.26	-0.43954	-0.519608	1
1634.06	-0.44343	-0.523566	1
1634.86	-0.44758	-0.527933	1
1635.66	-0.451241	-0.530249	1
1636.46	-0.455529	-0.533912	1
1637.26	-0.459427	-0.535678	1
1638.06	-0.46334	-0.53905	1
1638.86	-0.46744	-0.541328	1
1639.66	-0.471518	-0.543765	1
1640.46	-0.475507	-0.545825	1
1641.26	-0.479333	-0.54683	1
1642.06	-0.483544	-0.549385	1
1642.86	-0.48748	-0.550962	1
1643.66	-0.491702	-0.552159	1
1644.46	-0.495463	-0.553402	1
1645.26	-0.499567	-0.554061	1
1646.06	-0.503446	-0.555525	1
1646.86	-0.507661	-0.556927	1
1647.66	-0.511517	-0.557228	1
1648.46	-0.515552	-0.557332	1
1649.26	-0.519534	-0.559667	1
1650.06	-0.523371	-0.561129	1
1650.86	-0.527509	-0.559824	1
1651.66	-0.53151	-0.561396	1
1652.46	-0.535313	-0.561866	1
1653.26	-0.539467	-0.563435	1
1654.06	-0.543533	-0.564789	1
1654.86	-0.547335	-0.566056	1
1655.66	-0.551561	-0.567138	1
1656.46	-0.555383	-0.568666	1
1657.26	-0.559441	-0.569584	1
1658.06	-0.563431	-0.57098	1
1658.86	-0.567585	-0.57338	1
1659.66	-0.57149	-0.576295	1
1660.46	-0.575445	-0.577948	1
1661.26	-0.579618	-0.580129	1
1662.06	-0.583398	-0.582551	1
1662.86	-0.587487	-0.584067	1
1663.66	-0.591568	-0.587122	1
1664.46	-0.595485	-0.589807	1
1665.26	-0.599578	-0.592454	1
1666.06	-0.60346	-0.595497	1
1666.86	-0.607488	-0.598127	1
1667.66	-0.611356	-0.601167	1
1668.46	-0.61549	-0.60433	1
1669.26	-0.619529	-0.607987	1
1670.06	-0.62337	-0.611009	1
1670.86	-0.627428	-0.614574	1
1671.66	-0.631536	-0.618197	1
1672.46	-0.635301	-0.621056	1
1673.26	-0.63937	-0.623842	1
1674.06	-0.643352	-0.628192	1
1674.86	-0.647544	-0.631063	1
1675.66	-0.651435	-0.635796	1
1676.46	-0.655191	-0.638384	1
1677.26	-0.659643	-0.64262	1
1678.06	-0.663445	-0.645063	1
1678.86	-0.667565	-0.649464	1
1679.66	-0.671322	-0.651876	1
1680.46	-0.67567	-0.656323	1
1681.26	-0.679549	-0.659156	1
1682.06	-0.683409	-0.662816	1
1682.86	-0.687349	-0.665074	1
1683.66	-0.69135	-0.669623	1
1684.46	-0.695397	-0.671488	1
1685.26	-0.699508	-0.674912	1
1686.06	-0.70325	-0.679365	1
1686.86	-0.707507	-0.681862	1
1687.66	-0.711508	-0.686229	1
1688.46	-0.715547	-0.689005	1
1689.26	-0.719414	-0.692124	1
1690.06	-0.723503	-0.695613	1
1690.86	-0.727283	-0.70065	1
1691.66	-0.731688	-0.70327	1
1692.46	-0.73535	-0.70612	1
1693.26	-0.73961	-0.70897	1
1694.06	-0.743516	-0.711627	1
1694.86	-0.747509	-0.716421	1
1695.66	-0.751549	-0.718934	1
1696.46	-0.755641	-0.723046	1
1697.26	-0.759409	-0.724944	1
1698.06	-0.763391	-0.729291	1
1698.86	-0.767492	-0.731943	1
1699.66	-0.771558	-0.736356	1
1700.46	-0.775448	-0.738694	1
1701.26	-0.779296	-0.740781	1
1702.06	-0.783252	-0.744178	1
1702.86	-0.787207	-0.747083	1
1703.66	-0.791654	-0.750042	1
1704.46	-0.795339	-0.752675	1
1705.26	-0.799473	-0.756423	1
1706.06	-0.803493	-0.760276	1
1706.86	-0.807529	-0.762372	1
1707.66	-0.811583	-0.765317	1
1708.46	-0.815336	-0.769095	1
1709.26	-0.819509	-0.771146	1
1710.06	-0.823579	-0.775129	1
1710.86	-0.827576	-0.776324	1
1711.66	-0.831459	-0.779123	1
1712.46	-0.835578	-0.783387	1
1713.26	-0.839526	-0.786225	1
1714.06	-0.843443	-0.788283	1
1714.86	-0.847486	-0.790139	1
1715.66	-0.851586	-0.793712	1
1716.46	-0.855633	-0.795899	1
1717.26	-0.85947	-0.798851	1
1718.06	-0.863501	-0.801403	1
1718.86	-0.867369	-0.803702	1
1719.66	-0.871546	-0.806571	1
1720.46	-0.875306	-0.810328	1
1721.26	-0.879551	-0.81317	1
1722.06	-0.883442	-0.813636	1
1722.85	-0.887599	-0.815295	1
1723.65	-0.891505	-0.819939	1
1724.45	-0.895369	-0.822578	1
1725.25	-0.899415	-0.82285	1
1726.05	-0.903542	-0.82421	1
1726.85	-0.907383	-0.825868	1
1727.65	-0.911609	-0.828621	1
1728.45	-0.915473	-0.830259	1
1729.25	-0.919543	-0.833676	1
1730	-0.923193	-0.833732	1
1730.8	-0.919909	-0.830018	1
1731.6	-0.916011	-0.826138	1
1732.4	-0.91201	-0.826128	1
1733.2	-0.907952	-0.821058	1
1734	-0.904039	-0.817492	1
1734.8	-0.899938	-0.816652	1
1735.6	-0.896144	-0.81381	1
1736.4	-0.89194	-0.810509	1
1737.2	-0.888134	-0.807046	1
1738	-0.884007	-0.8047	1
1738.8	-0.879956	-0.800657	1
1739.6	-0.875993	-0.798542	1
1740.4	-0.87195	-0.793504	1
1741.2	-0.868087	-0.790668	1
1742	-0.864235	-0.788903	1
1742.8	-0.860207	-0.785802	1
1743.6	-0.855992	-0.782466	1
1744.4	-0.85188	-0.778255	1
1745.2	-0.847837	-0.775735	1
1746	-0.844057	-0.771864	1
1746.8	-0.840221	-0.768044	1
1747.6	-0.836025	-0.764953	1
1748.4	-0.832115	-0.761985	1
1749.2	-0.828088	-0.757639	1
1750	-0.823976	-0.754134	1
1750.8	-0.820135	-0.749555	1
1751.6	-0.815909	-0.746176	1
1752.4	-0.811992	-0.743093	1
1753.2	-0.808029	-0.741029	1
1754	-0.804089	-0.735707	1
1754.8	-0.800195	-0.731162	1
1755.6	-0.795976	-0.726271	1
1756.4	-0.792216	-0.722983	1
1757.2	-0.788268	-0.71958	1
1758	-0.783977	-0.715314	1
1758.8	-0.78019	-0.710657	1
1759.6	-0.776066	-0.708388	1
1760.4	-0.77221	-0.703155	1
1761.2	-0.768133	-0.699164	1
1762	-0.764121	-0.694986	1
1762.8	-0.76031	-0.691795	1
1763.6	-0.755981	-0.686464	1
1764.4	-0.752053	-0.682869	1
1765.2	-0.748155	-0.678297	1
1766	-0.744089	-0.673834	1
1766.8	-0.740053	-0.670592	1
1767.6	-0.736098	-0.665601	1
1768.4	-0.731898	-0.660985	1
1769.2	-0.728	-0.657185	1
1770	-0.724064	-0.65338	1
1770.8	-0.720105	-0.649662	1
1771.6	-0.716261	-0.645077	1
1772.4	-0.712008	-0.640616	1
1773.2	-0.708117	-0.6357	1
1774	-0.703979	-0.630899	1
1774.8	-0.70005	-0.626301	1
1775.6	-0.696049	-0.623047	1
1776.4	-0.692121	-0.617411	1
1777.2	-0.687956	-0.613812	1
1778	-0.683748	-0.610868	1
1778.8	-0.68011	-0.605089	1
1779.6	-0.676182	-0.601303	1
1780.4	-0.672016	-0.596448	1
1781.2	-0.668191	-0.5927	1
1782	-0.664026	-0.588303	1
1782.8	-0.660036	-0.583532	1
1783.6	-0.656066	-0.57977	1
1784.4	-0.65216	-0.574736	1
1785.2	-0.648056	-0.570334	1
1786	-0.64415	-0.565658	1
1786.8	-0.639997	-0.56243	1
1787.6	-0.636087	-0.558371	1
1788.4	-0.632128	-0.55427	1
1789.2	-0.628154	-0.549829	1
1790	-0.624061	-0.546534	1
1790.8	-0.620136	-0.541681	1
1791.6	-0.615964	-0.540241	1
1792.4	-0.612218	-0.534467	1
1793.2	-0.608019	-0.530847	1
1794	-0.604075	-0.527111	1
1794.8	-0.600158	-0.524784	1
1795.6	-0.596062	-0.522552	1
1796.4	-0.59203	-0.518795	1
1797.2	-0.588006	-0.515924	1
1798	-0.584001	-0.512999	1
1798.8	-0.580222	-0.51009	1
1799.6	-0.576133	-0.507763	1
1800.4	-0.572059	-0.505482	1
1801.2	-0.568138	-0.503875	1
1802	-0.564259	-0.501323	1
1802.8	-0.560117	-0.500137	1
1803.6	-0.556013	-0.498441	1
1804.4	-0.552138	-0.496347	1
1805.2	-0.548018	-0.495722	1
1806	-0.544262	-0.494279	1
1806.8	-0.540077	-0.494202	1
1807.6	-0.536012	-0.493077	1
1808.4	-0.531858	-0.493116	1
1809.2	-0.527983	-0.492159	1
1810	-0.524024	-0.491936	1
1810.8	-0.520221	-0.490445	1
1811.6	-0.516109	-0.490669	1
1812.4	-0.512024	-0.489125	1
1813.2	-0.50821	-0.488137	1
1814	-0.504156	-0.487594	1
1814.8	-0.500231	-0.486591	1
1815.6	-0.496192	-0.486062	1
1816.4	-0.492076	-0.485096	1
1817.2	-0.488133	-0.483986	1
1818	-0.48417	-0.481907	1
1818.8	-0.479989	-0.481192	1
1819.6	-0.476091	-0.479785	1
1820.4	-0.472266	-0.477666	1
1821.2	-0.46807	-0.475426	1
1822	-0.463962	-0.474206	1
1822.8	-0.460099	-0.472027	1
1823.6	-0.456162	-0.469114	1
1824.4	-0.452135	-0.466375	1
1825.2	-0.448137	-0.463253	1
1826	-0.444014	-0.459916	1
1826.8	-0.440097	-0.45649	1
1827.6	-0.435997	-0.452939	1
1828.4	-0.432129	-0.448658	1
1829.2	-0.428167	-0.444687	1
1830	-0.423986	-0.440601	1
1830.8	-0.420287	-0.435006	1
1831.6	-0.415869	-0.431027	1
1832.4	-0.412155	-0.425737	1
1833.2	-0.408016	-0.420188	1
1834	-0.404195	-0.414652	1
1834.8	-0.399991	-0.408178	1
1835.6	-0.396116	-0.402579	1
1836.4	-0.392031	-0.396528	1
1837.2	-0.38808	-0.389757	1
1838	-0.384258	-0.383175	1
1838.8	-0.380082	-0.375867	1
1839.6	-0.376008	-0.368732	1
1840.4	-0.372114	-0.360819	1
1841.2	-0.368181	-0.353501	1
1842	-0.364016	-0.345192	1
1842.8	-0.359905	-0.337333	1
1843.6	-0.356301	-0.328599	1
1844.4	-0.352177	-0.319876	1
1845.2	-0.348142	-0.311046	1
1846	-0.344225	-0.302054	1
1846.8	-0.340071	-0.292756	1
1847.6	-0.336124	-0.283607	1
1848.4	-0.331989	-0.274012	1
1849.2	-0.328267	-0.264491	1
1850	-0.324136	-0.254775	1
1850.8	-0.320234	-0.245231	1
1851.6	-0.316206	-0.235246	1
1852.4	-0.312209	-0.225232	1
1853.2	-0.308158	-0.215422	1
1854	-0.304199	-0.20547	1
1854.8	-0.300152	-0.195696	1
1855.6	-0.295861	-0.186053	1
1856.4	-0.292074	-0.176428	1
1857.2	-0.288111	-0.16683	1
1858	-0.283969	-0.157372	1
1858.79	-0.280185	-0.148196	1
1859.59	-0.276161	-0.139271	1
1860.39	-0.271988	-0.130578	1
1861.19	-0.268232	-0.122063	1
1861.99	-0.26407	-0.114002	1
1862.79	-0.260111	-0.106025	1
1863.59	-0.256118	-0.0985192	1
1864.39	-0.252071	-0.0912916	1
1865.19	-0.248223	-0.0844982	1
1865.99	-0.244092	-0.0779897	1
1866.79	-0.240144	-0.071873	1
1867.59	-0.236086	-0.0660551	1
1868.39	-0.232169	-0.0606435	1
1869.19	-0.22808	-0.0555625	1
1869.99	-0.223972	-0.0508504	1
1871.19	-0.218127	-0.044247	1
1871.99	-0.213931	-0.0403219	1
1872.79	-0.21019	-0.0366285	1
1873.59	-0.206063	-0.0332409	1
1874.39	-0.202146	-0.0300962	1
1875.19	-0.198355	-0.0271876	1
1875.99	-0.19393	-0.024487	1
1876.79	-0.190124	-0.0220107	1
1877.59	-0.186031	-0.0197299	1
1878.39	-0.182247	-0.0176296	1
1879.19	-0.177998	-0.0157019	1
1879.99	-0.174177	-0.0139376	1
1880.79	-0.170057	-0.0123244	1
1881.59	-0.166072	-0.0108635	1
1882.39	-0.162021	-0.00952879	1
1883.19	-0.15826	-0.00833426	1
1883.99	-0.154118	-0.00726215	1
1884.79	-0.150113	-0.00630272	1
1885.59	-0.145963	-0.0054439	1
1886.79	-0.140088	-0.00434299	1
1887.59	-0.136033	-0.00370984	1
1888.39	-0.132257	-0.0031579	1
1889.19	-0.128127	-0.00267121	1
1889.99	-0.124125	-0.00224413	1
1890.79	-0.120243	-0.00187353	1
1891.59	-0.116089	-0.0015442	1
1892.39	-0.112096	-0.00125919	1
1893.19	-0.108159	-0.00100595	1
1893.99	-0.104013	-0.000787677	1
1894.79	-0.10005	-0.000592906	1
1895.99	-0.0942856	-0.000348689	1
1896.79	-0.0902197	-0.000204991	1
1897.59	-0.0862263	-8.14317e-05	1
1898.79	-0.0800376	8.5912e-05	1
1899.99	-0.0738948	0.000221008	1
1900.79	-0.0702068	0.00030034	1
1901.59	-0.0661676	0.000378576	1
1902.39	-0.0621093	0.000445195	1
1903.19	-0.058135	0.000508865	1
1903.99	-0.0542523	0.000562302	1
1904.79	-0.0501673	0.00062071	1
1905.59	-0.0462807	0.000673015	1
1906.39	-0.0422033	0.000724542	1
1907.19	-0.0380954	0.000766443	1
1907.99	-0.034228	0.000817893	1
1908.79	-0.0300857	0.000860478	1
1909.59	-0.0259663	0.00090704	1
1910.39	-0.0222134	0.000941378	1
1911.19	-0.0182734	0.000989632	1
1912.39	-0.0120199	0.00105956	1
1913.19	-0.00813339	0.0010916	1
1913.99	-0.00432706	0.00113253	1
1914.79	1.3771e-05	0.00116905	1
1915.59	0.00385447	0.00121207	1
1916.39	0.00782879	0.00125328	1
1917.19	0.0118375	0.00129029	1
1917.99	0.0158881	0.00133358	1
1918.79	0.0199579	0.00137171	1
1919.59	0.0240048	0.00141532	1
1920.39	0.0278913	0.00145747	1
1921.19	0.0319152	0.00150252	1
1921.99	0.0358246	0.00155288	1
1922.79	0.0398868	0.00160327	1
1923.59	0.0439871	0.00165518	1
1924.39	0.0478087	0.00170939	1
1925.19	0.0518517	0.00176898	1
1925.99	0.0560513	0.00182934	1
1926.79	0.0599607	0.00190365	1
1927.59	0.063893	0.00197315	1
1928.39	0.0678597	0.00205907	1
1929.19	0.0718035	0.00215961	1
1929.99	0.075984	0.00228114	1
1930.79	0.0722234	0.00115958	2
1931.59	0.0682873	0.000817039	2
1932.39	0.0644504	0.000565637	2
1933.59	0.0586207	0.000281909	2
1934.39	0.0543409	0.00014305	2
1935.59	0.0485646	-3.54299e-05	2
1936.79	0.0426165	-0.000169981	2
1937.59	0.0383367	-0.000250107	2
1938.39	0.0345342	-0.000320457	2
1939.19	0.0303461	-0.000379286	2
1939.99	0.0264596	-0.000435025	2
1940.79	0.0225006	-0.000483039	2
1941.59	0.0185491	-0.000529194	2
1942.39	0.0145825	-0.000565333	2
1943.19	0.0102684	-0.000609602	2
1943.99	0.00651165	-0.000640102	2
1944.79	0.00249152	-0.000673216	2
1945.59	-0.00161643	-0.000698362	2
1946.39	-0.00559838	-0.000730495	2
1947.19	-0.00975977	-0.000752537	2
1947.99	-0.0136081	-0.00077777	2
1948.79	-0.017529	-0.000802842	2
1949.59	-0.0214613	-0.000825317	2
1950.39	-0.0254013	-0.000847273	2
1951.19	-0.0294787	-0.00086744	2
1951.99	-0.0336057	-0.00089209	2
1952.79	-0.0375151	-0.000914558	2
1953.59	-0.0417605	-0.000936624	2
1954.39	-0.0455401	-0.00096002	2
1955.19	-0.0496175	-0.00098473	2
1955.99	-0.0535345	-0.00101224	2
1957.19	-0.0597003	-0.00106238	2
1957.99	-0.0634875	-0.00109438	2
1958.79	-0.0675344	-0.00113359	2
1959.59	-0.0715812	-0.00117757	2
1960.39	-0.0754906	-0.0012252	2
1961.19	-0.0795108	-0.00128535	2
1961.99	-0.0834889	-0.00135105	2
1962.79	-0.0875969	-0.00142611	2
1963.59	-0.0915712	-0.00150954	2
1964.39	-0.0955722	-0.00161457	2
1965.19	-0.0995084	-0.00173313	2
1965.99	-0.103483	-0.00187036	2
1966.79	-0.107572	-0.00202872	2
1967.59	-0.111534	-0.00221573	2
1968.39	-0.115661	-0.00243059	2
1969.19	-0.119498	-0.00268173	2
1969.99	-0.12369	-0.0029739	2
1970.79	-0.127401	-0.00331503	2
1971.59	-0.13157	-0.00370779	2
1972.39	-0.135533	-0.00416236	2
1973.19	-0.13953	-0.00468456	2
1973.99	-0.1436	-0.00528718	2
1974.79	-0.147628	-0.00596896	2
1975.58	-0.151629	-0.00675151	2
1976.38	-0.155393	-0.00763948	2
1977.18	-0.159406	-0.00864249	2
1977.98	-0.163621	-0.00976771	2
1979.18	-0.169466	-0.0117366	2
1979.98	-0.173554	-0.0131859	2
1980.78	-0.177357	-0.0147992	2
1981.58	-0.181385	-0.0165866	2
1982.38	-0.185741	-0.0185451	2
1983.18	-0.189497	-0.0206845	2
1983.98	-0.193563	-0.0230143	2
1984.78	-0.197553	-0.0255746	2
1985.58	-0.201478	-0.0283529	2
1986.38	-0.205337	-0.0313849	2
1987.18	-0.209369	-0.0346598	2
1987.98	-0.21337	-0.0382336	2
1988.78	-0.217421	-0.0420985	2
1989.58	-0.221372	-0.0463141	2
1990.38	-0.225469	-0.050832	2
1991.18	-0.229611	-0.0557315	2
1991.98	-0.233421	-0.0609477	2
1992.78	-0.237399	-0.0665547	2
1993.58	-0.241545	-0.0725818	2
1994.38	-0.245432	-0.0789678	2
1995.18	-0.249502	-0.0857358	2
1995.98	-0.253453	-0.0928494	2
1996.78	-0.257611	-0.100381	2
1997.98	-0.263521	-0.112749	2
1998.78	-0.267338	-0.120934	2
1999.58	-0.27153	-0.129578	2
2000.38	-0.275516	-0.138519	2
2001.18	-0.279273	-0.147763	2
2001.98	-0.283511	-0.157209	2
2002.78	-0.287374	-0.166903	2
2003.58	-0.291402	-0.176761	2
2004.38	-0.295334	-0.186665	2
2005.18	-0.299748	-0.196947	2
2005.98	-0.303321	-0.207035	2
2006.78	-0.307448	-0.217376	2
2007.58	-0.311453	-0.227708	2
2008.38	-0.315614	-0.237975	2
2009.18	-0.319512	-0.248039	2
2009.98	-0.323765	-0.258261	2
2010.78	-0.327469	-0.268437	2
2011.58	-0.331496	-0.278417	2
2012.38	-0.335528	-0.288528	2
2013.18	-0.339437	-0.297998	2
2013.98	-0.343519	-0.307396	2
2014.78	-0.347535	-0.316788	2
2015.58	-0.35149	-0.325943	2
2016.38	-0.355564	-0.334908	2
2017.18	-0.359378	-0.343757	2
2017.98	-0.363802	-0.352272	2
2018.78	-0.367636	-0.360779	2
2019.58	-0.371331	-0.368755	2
2020.38	-0.375485	-0.376467	2
2021.18	-0.37965	-0.383919	2
2021.98	-0.383666	-0.391005	2
2022.78	-0.387606	-0.398189	2
2023.58	-0.391669	-0.405575	2
2024.38	-0.395582	-0.411871	2
2025.18	-0.399438	-0.418086	2
2025.98	-0.403622	-0.424417	2
2026.78	-0.407764	-0.430073	2
2027.58	-0.411628	-0.435975	2
2028.38	-0.415362	-0.441059	2
2029.18	-0.41955	-0.446366	2
2029.98	-0.423608	-0.451158	2
2030.78	-0.427518	-0.455428	2
2031.58	-0.431374	-0.460191	2
2032.38	-0.435607	-0.464127	2
2033.18	-0.439452	-0.468663	2
2033.98	-0.443552	-0.471544	2
2034.78	-0.447378	-0.474831	2
2035.58	-0.451551	-0.477638	2
2036.38	-0.455597	-0.481272	2
2037.18	-0.459568	-0.483298	2
2037.98	-0.463493	-0.48566	2
2038.78	-0.467539	-0.487615	2
2039.58	-0.471281	-0.48937	2
2040.38	-0.475461	-0.491848	2
2041.18	-0.479768	-0.492421	2
2041.98	-0.48354	-0.49422	2
2042.78	-0.487552	-0.495356	2
2043.58	-0.491443	-0.496864	2
2044.38	-0.495608	-0.49789	2
2045.18	-0.499586	-0.498561	2
2045.98	-0.503606	-0.499172	2
2046.78	-0.507477	-0.499547	2
2047.58	-0.511482	-0.500642	2
2048.38	-0.515388	-0.500903	2
2049.18	-0.5195	-0.50135	2
2049.98	-0.523516	-0.502604	2
2050.78	-0.527547	-0.502221	2
2051.58	-0.531556	-0.502739	2
2052.38	-0.53555	-0.504188	2
2053.18	-0.539413	-0.505053	2
2053.98	-0.543449	-0.504588	2
2054.78	-0.547331	-0.506603	2
2055.58	-0.551642	-0.506562	2
2056.38	-0.555475	-0.50793	2
2057.18	-0.559613	-0.509404	2
2057.98	-0.563519	-0.510405	2
2058.78	-0.567459	-0.512524	2
2059.58	-0.571471	-0.514456	2
2060.38	-0.57572	-0.517365	2
2061.18	-0.579523	-0.517637	2
2061.98	-0.583341	-0.519759	2
2062.78	-0.58754	-0.523495	2
2063.58	-0.591522	-0.525341	2
2064.38	-0.595393	-0.528544	2
2065.18	-0.599551	-0.53127	2
2065.98	-0.603605	-0.534202	2
2066.78	-0.607278	-0.537358	2
2067.58	-0.61147	-0.540307	2
2068.38	-0.615422	-0.544021	2
2069.18	-0.619579	-0.547479	2
2069.98	-0.623504	-0.551774	2
2070.78	-0.627646	-0.554914	2
2071.58	-0.631433	-0.558331	2
2072.38	-0.635671	-0.562068	2
2073.18	-0.639401	-0.565879	2
2073.98	-0.643349	-0.570457	2
2074.78	-0.647411	-0.573623	2
2075.58	-0.651668	-0.577821	2
2076.38	-0.655497	-0.581318	2
2077.18	-0.659715	-0.58665	2
2077.98	-0.66343	-0.58949	2
2078.78	-0.667447	-0.596289	2
2079.58	-0.671497	-0.598322	2
2080.38	-0.675418	-0.60222	2
2081.18	-0.679438	-0.606318	2
2081.98	-0.683321	-0.60983	2
2082.78	-0.687578	-0.61517	2
2083.58	-0.691541	-0.619773	2
2084.38	-0.695526	-0.623494	2
2085.18	-0.699566	-0.627949	2
2085.98	-0.703651	-0.631775	2
2086.78	-0.707652	-0.636201	2
2087.58	-0.711477	-0.640021	2
2088.38	-0.715356	-0.642383	2
2089.18	-0.719506	-0.647287	2
2089.98	-0.723621	-0.65047	2
2090.78	-0.727584	-0.655988	2
2091.58	-0.731414	-0.659627	2
2092.38	-0.735495	-0.663568	2
2093.18	-0.73961	-0.667733	2
2093.98	-0.743314	-0.671536	2
2094.78	-0.74759	-0.675412	2
2095.58	-0.751522	-0.679654	2
2096.38	-0.755676	-0.681962	2
2097.18	-0.759593	-0.68638	2
2097.98	-0.763697	-0.691713	2
2098.78	-0.767461	-0.694779	2
2099.58	-0.771455	-0.698362	2
2100.38	-0.77565	-0.702634	2
2101.18	-0.77951	-0.707487	2
2101.98	-0.783656	-0.709966	2
2102.78	-0.787489	-0.714272	2
2103.58	-0.791555	-0.719188	2
2104.38	-0.795556	-0.721317	2
2105.18	-0.799424	-0.7247	2
2105.98	-0.803471	-0.730216	2
2106.78	-0.80764	-0.732142	2
2107.58	-0.811557	-0.736001	2
2108.38	-0.81547	-0.739971	2
2109.18	-0.819456	-0.741894	2
2109.98	-0.823403	-0.745698	2
2110.78	-0.827572	-0.750145	2
2111.58	-0.83168	-0.753284	2
2112.38	-0.835387	-0.756547	2
2113.18	-0.839602	-0.758564	2
2113.98	-0.8435	-0.76269	2
2114.78	-0.847539	-0.765896	2
2115.58	-0.851464	-0.76881	2
2116.38	-0.85553	-0.771808	2
2117.18	-0.85947	-0.775874	2
2117.98	-0.863627	-0.777495	2
2118.78	-0.867594	-0.779099	2
2119.58	-0.871454	-0.782118	2
2120.38	-0.875218	-0.785893	2
2121.18	-0.879613	-0.789209	2
2121.98	-0.883484	-0.791455	2
2122.78	-0.887626	-0.793518	2
2123.58	-0.891264	-0.797149	2
2124.38	-0.895556	-0.797965	2
2125.18	-0.899488	-0.803376	2
2125.98	-0.90347	-0.804192	2
2126.78	-0.907635	-0.807617	2
2127.58	-0.911361	-0.810134	2
2128.37	-0.915385	-0.8115	2
2129.17	-0.919638	-0.813509	2
2129.92	-0.923387	-0.81582	2
2130.72	-0.919917	-0.811886	2
2131.52	-0.91595	-0.808868	2
2132.32	-0.912045	-0.806127	2
2133.12	-0.908067	-0.804881	2
2133.92	-0.904023	-0.800247	2
2134.72	-0.900087	-0.799922	2
2135.52	-0.896182	-0.797206	2
2136.32	-0.89194	-0.790348	2
2137.12	-0.888084	-0.789906	2
2137.92	-0.884037	-0.785869	2
2138.72	-0.879937	-0.784381	2
2139.52	-0.875909	-0.780675	2
2140.32	-0.871866	-0.776627	2
2141.12	-0.86788	-0.773699	2
2141.92	-0.86417	-0.769938	2
2142.72	-0.860184	-0.765677	2
2143.52	-0.855988	-0.762801	2
2144.32	-0.851983	-0.760329	2
2145.12	-0.848269	-0.757245	2
2145.92	-0.843993	-0.754543	2
2146.72	-0.840034	-0.751653	2
2147.52	-0.836242	-0.747867	2
2148.32	-0.832016	-0.744509	2
2149.12	-0.828004	-0.74074	2
2149.92	-0.823942	-0.736873	2
2150.72	-0.820219	-0.732841	2
2151.52	-0.816226	-0.732064	2
2152.32	-0.812099	-0.726852	2
2153.12	-0.808029	-0.721059	2
2153.92	-0.803925	-0.718355	2
2154.72	-0.80026	-0.714299	2
2155.52	-0.796243	-0.711267	2
2156.32	-0.792246	-0.706693	2
2157.12	-0.787974	-0.703279	2
2157.92	-0.78416	-0.699635	2
2158.72	-0.780121	-0.694519	2
2159.52	-0.776124	-0.688955	2
2160.32	-0.771909	-0.685887	2
2161.12	-0.768343	-0.682456	2
2161.92	-0.763987	-0.678767	2
2162.72	-0.76007	-0.67528	2
2163.52	-0.756034	-0.671171	2
2164.32	-0.752308	-0.667154	2
2165.12	-0.748246	-0.663339	2
2165.92	-0.744176	-0.658619	2
2166.72	-0.740179	-0.654534	2
2167.52	-0.736235	-0.649438	2
2168.32	-0.731979	-0.64491	2
2169.12	-0.727962	-0.641753	2
2169.92	-0.724309	-0.637783	2
2170.72	-0.719972	-0.633575	2
2171.52	-0.716318	-0.630575	2
2172.32	-0.71205	-0.624488	2
2173.12	-0.708205	-0.620701	2
2173.92	-0.704067	-0.616424	2
2174.72	-0.700112	-0.612328	2
2175.52	-0.696011	-0.60909	2
2176.32	-0.692167	-0.603449	2
2177.12	-0.688105	-0.599715	2
2177.92	-0.684146	-0.594645	2
2178.72	-0.680171	-0.590008	2
2179.52	-0.676288	-0.586273	2
2180.32	-0.672127	-0.581714	2
2181.12	-0.668073	-0.577307	2
2181.92	-0.664045	-0.572975	2
2182.72	-0.660051	-0.569651	2
2183.52	-0.656008	-0.564276	2
2184.32	-0.652126	-0.558915	2
2185.12	-0.648037	-0.553995	2
2185.92	-0.64399	-0.550678	2
2186.72	-0.640065	-0.545733	2
2187.52	-0.636026	-0.542485	2
2188.32	-0.632056	-0.538848	2
2189.12	-0.627955	-0.535336	2
2189.92	-0.624046	-0.530335	2
2190.72	-0.620266	-0.526377	2
2191.52	-0.616132	-0.522818	2
2192.32	-0.612119	-0.519212	2
2193.12	-0.608187	-0.515854	2
2193.92	-0.604163	-0.512219	2
2194.72	-0.59983	-0.509035	2
2195.52	-0.596184	-0.506803	2
2196.32	-0.592091	-0.503477	2
2197.12	-0.587968	-0.499908	2
2197.92	-0.584341	-0.497794	2
2198.72	-0.580344	-0.495837	2
2199.52	-0.575812	-0.492946	2
2200.32	-0.57212	-0.491437	2
2201.12	-0.568165	-0.489686	2
2201.92	-0.564171	-0.488044	2
2202.72	-0.560121	-0.486586	2
2203.52	-0.556116	-0.485303	2
2204.32	-0.552172	-0.484381	2
2205.12	-0.547931	-0.483683	2
2205.92	-0.544185	-0.48301	2
2206.72	-0.540326	-0.482813	2
2207.52	-0.536027	-0.482752	2
2208.32	-0.532156	-0.481657	2
2209.12	-0.528139	-0.480949	2
2209.92	-0.523989	-0.48093	2
2210.72	-0.52013	-0.48101	2
2211.52	-0.516106	-0.481641	2
2212.32	-0.512162	-0.480953	2
2213.12	-0.50821	-0.480094	2
2213.92	-0.504106	-0.479615	2
2214.72	-0.500094	-0.478785	2
2215.52	-0.495913	-0.478096	2
2216.32	-0.492	-0.477666	2
2217.12	-0.488045	-0.477731	2
2217.92	-0.484174	-0.47616	2
2218.72	-0.480131	-0.474989	2
2219.52	-0.476065	-0.473754	2
2220.32	-0.471949	-0.471581	2
2221.12	-0.467963	-0.469803	2
2221.92	-0.464126	-0.467365	2
2222.72	-0.46016	-0.466185	2
2223.52	-0.455975	-0.463146	2
2224.32	-0.452119	-0.460524	2
2225.12	-0.448053	-0.457332	2
2225.92	-0.444022	-0.45405	2
2226.72	-0.440189	-0.450386	2
2227.52	-0.436134	-0.447172	2
2228.32	-0.432187	-0.443084	2
2229.12	-0.428056	-0.438862	2
2229.92	-0.424066	-0.434457	2
2230.72	-0.420126	-0.429827	2
2231.52	-0.415973	-0.425165	2
2232.32	-0.411972	-0.419959	2
2233.12	-0.408314	-0.4152	2
2233.92	-0.404034	-0.409544	2
2234.72	-0.400079	-0.40377	2
2235.52	-0.396368	-0.397529	2
2236.32	-0.392127	-0.3912	2
2237.12	-0.388232	-0.385437	2
2237.92	-0.384224	-0.378026	2
2238.72	-0.380223	-0.371354	2
2239.52	-0.376084	-0.363748	2
2240.32	-0.372087	-0.356471	2
2241.12	-0.368139	-0.348616	2
2241.92	-0.364127	-0.340611	2
2242.72	-0.360202	-0.332532	2
2243.52	-0.355999	-0.324222	2
2244.32	-0.352311	-0.315576	2
2245.12	-0.34813	-0.306979	2
2245.92	-0.344003	-0.298574	2
2246.72	-0.340105	-0.288785	2
2247.52	-0.336257	-0.27934	2
2248.32	-0.331958	-0.269908	2
2249.12	-0.328003	-0.260639	2
2249.92	-0.323998	-0.251005	2
2250.72	-0.320203	-0.241282	2
2251.52	-0.316069	-0.231476	2
2252.32	-0.312133	-0.221688	2
2253.12	-0.308013	-0.211987	2
2253.92	-0.304283	-0.202032	2
2254.72	-0.300042	-0.192283	2
2255.52	-0.29585	-0.182538	2
2256.32	-0.292131	-0.172939	2
2257.12	-0.288229	-0.16352	2
2257.92	-0.284244	-0.15422	2
2258.72	-0.280139	-0.145029	2
2259.52	-0.276131	-0.136129	2
2260.32	-0.271981	-0.12757	2
2261.12	-0.268159	-0.119138	2
2261.92	-0.264158	-0.111031	2
2262.72	-0.260184	-0.10328	2
2263.52	-0.256087	-0.0958511	2
2264.31	-0.251957	-0.0887327	2
2265.11	-0.248154	-0.0819916	2
2265.91	-0.244019	-0.0755825	2
2266.71	-0.240114	-0.0695392	2
2267.51	-0.236269	-0.0638644	2
2268.31	-0.232165	-0.0585533	2
2269.11	-0.228061	-0.0535978	2
2269.91	-0.224121	-0.0489815	2
2271.11	-0.217921	-0.0425956	2
2271.91	-0.214054	-0.0387421	2
2272.71	-0.210022	-0.0351981	2
2273.51	-0.206128	-0.0319244	2
2274.31	-0.202195	-0.0288863	2
2275.11	-0.198213	-0.0260782	2
2275.91	-0.194014	-0.0234876	2
2276.71	-0.190143	-0.021116	2
2277.51	-0.186019	-0.0189154	2
2278.31	-0.182141	-0.0169129	2
2279.11	-0.178101	-0.0150649	2
2279.91	-0.174032	-0.0133731	2
2280.71	-0.17016	-0.011832	2
2281.51	-0.166205	-0.0104377	2
2282.31	-0.162189	-0.00916893	2
2283.11	-0.158104	-0.00803364	2
2283.91	-0.154107	-0.00700877	2
2284.71	-0.150258	-0.00609819	2
2285.51	-0.146188	-0.00527386	2
2286.71	-0.140133	-0.00422193	2
2287.51	-0.136121	-0.00362189	2
2288.31	-0.132131	-0.0030923	2
2289.11	-0.128142	-0.00262457	2
2289.91	-0.124083	-0.00220974	2
2290.71	-0.120151	-0.00185033	2
2291.51	-0.116154	-0.00153245	2
2292.31	-0.111985	-0.00125893	2
2293.11	-0.107846	-0.00101237	2
2293.91	-0.103964	-0.00078997	2
2294.71	-0.100085	-0.000601757	2
2295.91	-0.0943391	-0.000350856	2
2296.71	-0.090109	-0.0002097	2
2297.51	-0.0862759	-8.87829e-05	2
2298.71	-0.0802552	8.76794e-05	2
2299.91	-0.0742193	0.000234862	2
2300.71	-0.0701801	0.000318191	2
2301.51	-0.0660951	0.000400589	2
2302.31	-0.0620368	0.000472924	2
2303.11	-0.0581121	0.000545535	2
2303.91	-0.0542217	0.00060138	2
2304.71	-0.0502131	0.000665191	2
2305.51	-0.0461128	0.000723554	2
2306.31	-0.0419285	0.0007755	2
2307.11	-0.0380992	0.000827021	2
2307.91	-0.0340867	0.000882876	2
2308.71	-0.0303033	0.000929976	2
2309.51	-0.0262488	0.000975179	2
2310.31	-0.0222898	0.00101781	2
2311.51	-0.0159904	0.00108931	2
2312.31	-0.0122108	0.00113626	2
2313.11	-0.00810667	0.00117728	2
2313.91	-0.00400254	0.00122192	2
2314.71	-0.000154212	0.00126269	2
2315.51	0.00383156	0.00130944	2
2316.31	0.00784406	0.00134647	2
2317.11	0.0119405	0.00139331	2
2317.91	0.0159874	0.00143887	2
2318.71	0.0199694	0.00148424	2
2319.51	0.0239093	0.00152626	2
2320.31	0.0279104	0.00157392	2
2321.11	0.0320488	0.00162108	2
2321.91	0.0360423	0.00167122	2
2322.71	0.0397264	0.00172148	2
2323.51	0.0439489	0.00177077	2
2324.31	0.0478125	0.00182729	2
2325.11	0.0518975	0.00187976	2
2325.91	0.0558948	0.00194296	2
2326.71	0.0599378	0.00200304	2
2327.51	0.0638052	0.00207121	2
2328.31	0.067959	0.00213695	2
2329.11	0.0717653	0.00222289	2
2329.91	0.0758351	0.00231819	2
2330.71	0.0726014	0.00122405	3
2331.51	0.0685202	0.000904964	3
2332.31	0.0644428	0.000665745	3
2333.51	0.0584412	0.000396939	3
2334.31	0.054234	0.00025624	3
2335.11	0.0504544	0.000130421	3
2336.31	0.0443803	-2.6358e-05	3
2337.51	0.0383024	-0.000157395	3
2338.31	0.0344693	-0.000228903	3
2339.11	0.0305255	-0.000298728	3
2339.91	0.026536	-0.000360984	3
2340.71	0.0225425	-0.000411767	3
2341.51	0.018385	-0.000465724	3
2342.31	0.0145786	-0.00051393	3
2343.11	0.0104631	-0.000560764	3
2343.91	0.00659946	-0.000596178	3
2344.71	0.00264041	-0.000630022	3
2345.51	-0.00166224	-0.000664671	3
2346.31	-0.00569382	-0.000702033	3
2347.11	-0.00968341	-0.000729627	3
2347.91	-0.0134783	-0.000762016	3
2348.71	-0.0174793	-0.000787018	3
2349.51	-0.0214957	-0.000813726	3
2350.31	-0.0255005	-0.000842574	3
2351.11	-0.0294939	-0.000866159	3
2351.91	-0.0334835	-0.000891431	3
2352.71	-0.037622	-0.000916691	3
2353.51	-0.04152	-0.000945765	3
2354.31	-0.0457501	-0.000971381	3
2355.11	-0.049545	-0.00100371	3
2356.31	-0.0557756	-0.00105697	3
2357.11	-0.0594674	-0.00107895	3
2357.91	-0.0637051	-0.00111731	3
2358.71	-0.0676756	-0.00115972	3
2359.51	-0.071524	-0.00120701	3
2360.31	-0.0756777	-0.00125298	3
2361.11	-0.0793504	-0.00131523	3
2361.91	-0.0836378	-0.00138286	3
2362.71	-0.0876694	-0.00146134	3
2363.51	-0.0914605	-0.00154589	3
2364.31	-0.0955302	-0.00165199	3
2365.11	-0.0994969	-0.0017684	3
2365.91	-0.103696	-0.00190227	3
2366.71	-0.107453	-0.00205729	3
2367.51	-0.111611	-0.00224253	3
2368.31	-0.115432	-0.00245236	3
2369.11	-0.119388	-0.00269527	3
2369.91	-0.123595	-0.00297292	3
2370.71	-0.127523	-0.00330238	3
2371.51	-0.13144	-0.00367164	3
2372.31	-0.135606	-0.00410568	3
2373.11	-0.139534	-0.00460349	3
2373.91	-0.143527	-0.00517449	3
2374.71	-0.147429	-0.00582545	3
2375.51	-0.151507	-0.00656409	3
2376.31	-0.155576	-0.00739731	3
2377.11	-0.15957	-0.00834571	3
2377.91	-0.163468	-0.00940793	3
2379.11	-0.169576	-0.0112874	3
2379.91	-0.173547	-0.0126387	3
2380.71	-0.177662	-0.0141647	3
2381.51	-0.181602	-0.0158407	3
2382.3	-0.185466	-0.0176898	3
2383.1	-0.189501	-0.0197146	3
2383.9	-0.193437	-0.0219232	3
2384.7	-0.197454	-0.0243663	3
2385.5	-0.201604	-0.0269897	3
2386.3	-0.205513	-0.0298671	3
2387.1	-0.209507	-0.0329696	3
2387.9	-0.2135	-0.0363867	3
2388.7	-0.217558	-0.0400764	3
2389.5	-0.221552	-0.0440882	3
2390.3	-0.225408	-0.0484008	3
2391.1	-0.229462	-0.0530837	3
2391.9	-0.233662	-0.0581096	3
2392.7	-0.237525	-0.0634958	3
2393.5	-0.241328	-0.0692824	3
2394.3	-0.245623	-0.0754045	3
2395.1	-0.249399	-0.0819599	3
2395.9	-0.253678	-0.088813	3
2396.7	-0.257217	-0.0961105	3
2397.9	-0.26341	-0.108451	3
2398.7	-0.267522	-0.116186	3
2399.5	-0.271488	-0.124494	3
2400.3	-0.275554	-0.133199	3
2401.1	-0.279548	-0.142222	3
2401.9	-0.283381	-0.151572	3
2402.7	-0.287645	-0.160983	3
2403.5	-0.291486	-0.170615	3
2404.3	-0.295246	-0.180479	3
2405.1	-0.299473	-0.190542	3
2405.9	-0.303623	-0.200418	3
2406.7	-0.307563	-0.21048	3
2407.5	-0.311525	-0.220615	3
2408.3	-0.315385	-0.230811	3
2409.1	-0.319394	-0.240855	3
2409.9	-0.323628	-0.250728	3
2410.7	-0.327671	-0.260698	3
2411.5	-0.331485	-0.270608	3
2412.3	-0.335494	-0.280388	3
2413.1	-0.339449	-0.289901	3
2413.9	-0.343637	-0.299356	3
2414.7	-0.347455	-0.308885	3
2415.5	-0.351444	-0.317555	3
2416.3	-0.355327	-0.326484	3
2417.1	-0.359656	-0.335176	3
2417.9	-0.363417	-0.343866	3
2418.7	-0.367548	-0.351725	3
2419.5	-0.371514	-0.359726	3
2420.3	-0.375523	-0.368056	3
2421.1	-0.379391	-0.375176	3
2421.9	-0.383376	-0.382054	3
2422.7	-0.387442	-0.389544	3
2423.5	-0.391737	-0.396008	3
2424.3	-0.395502	-0.403318	3
2425.1	-0.399491	-0.409321	3
2425.9	-0.403511	-0.414757	3
2426.7	-0.407402	-0.420642	3
2427.5	-0.411739	-0.426137	3
2428.3	-0.415339	-0.432019	3
2429.1	-0.419565	-0.436758	3
2429.9	-0.423345	-0.441131	3
2430.7	-0.42764	-0.445872	3
2431.5	-0.431637	-0.450311	3
2432.3	-0.435371	-0.454493	3
2433.1	-0.439643	-0.457409	3
2433.9	-0.443587	-0.461258	3
2434.7	-0.447595	-0.464237	3
2435.5	-0.451436	-0.467441	3
2436.3	-0.455659	-0.469874	3
2437.1	-0.459427	-0.47214	3
2437.9	-0.463432	-0.47544	3
2438.7	-0.467589	-0.477243	3
2439.5	-0.471483	-0.47824	3
2440.3	-0.475377	-0.480883	3
2441.1	-0.47963	-0.483082	3
2441.9	-0.483418	-0.483506	3
2442.7	-0.487526	-0.483488	3
2443.5	-0.491466	-0.485079	3
2444.3	-0.495535	-0.485689	3
2445.1	-0.499468	-0.485972	3
2445.9	-0.503549	-0.48687	3
2446.7	-0.507535	-0.487501	3
2447.5	-0.511425	-0.487533	3
2448.3	-0.515724	-0.487872	3
2449.1	-0.519652	-0.487963	3
2449.9	-0.523382	-0.487673	3
2450.7	-0.527429	-0.488538	3
2451.5	-0.531445	-0.489001	3
2452.3	-0.535584	-0.488658	3
2453.1	-0.539467	-0.488327	3
2453.9	-0.543613	-0.489511	3
2454.7	-0.547511	-0.489944	3
2455.5	-0.551535	-0.490894	3
2456.3	-0.555612	-0.491546	3
2457.1	-0.559605	-0.491874	3
2457.9	-0.563633	-0.493061	3
2458.7	-0.567424	-0.495002	3
2459.5	-0.571433	-0.496087	3
2460.3	-0.575541	-0.498839	3
2461.1	-0.579393	-0.500493	3
2461.9	-0.583623	-0.502374	3
2462.7	-0.587575	-0.504697	3
2463.5	-0.59148	-0.507297	3
2464.3	-0.595577	-0.510129	3
2465.1	-0.599494	-0.512527	3
2465.9	-0.60351	-0.516111	3
2466.7	-0.607572	-0.519198	3
2467.5	-0.611459	-0.521535	3
2468.3	-0.615425	-0.525528	3
2469.1	-0.619747	-0.529256	3
2469.9	-0.62345	-0.533101	3
2470.7	-0.627654	-0.53615	3
2471.5	-0.631395	-0.540229	3
2472.3	-0.635465	-0.543109	3
2473.1	-0.639657	-0.548125	3
2473.9	-0.643589	-0.552221	3
2474.7	-0.647548	-0.55564	3
2475.5	-0.651221	-0.559491	3
2476.3	-0.655577	-0.5639	3
2477.1	-0.659471	-0.567988	3
2477.9	-0.663468	-0.571931	3
2478.7	-0.667672	-0.575011	3
2479.5	-0.671406	-0.579591	3
2480.3	-0.67554	-0.584103	3
2481.1	-0.67945	-0.588857	3
2481.9	-0.683393	-0.592774	3
2482.7	-0.687498	-0.596839	3
2483.5	-0.691552	-0.601738	3
2484.3	-0.695645	-0.605085	3
2485.1	-0.699657	-0.609842	3
2485.9	-0.703582	-0.613544	3
2486.7	-0.707419	-0.617838	3
2487.5	-0.711595	-0.622211	3
2488.3	-0.715539	-0.626362	3
2489.1	-0.719391	-0.630655	3
2489.9	-0.723553	-0.635754	3
2490.7	-0.727401	-0.639178	3
2491.5	-0.731475	-0.643002	3
2492.3	-0.73556	-0.648026	3
2493.1	-0.739568	-0.651401	3
2493.9	-0.743348	-0.656821	3
2494.7	-0.747651	-0.660195	3
2495.5	-0.751633	-0.66456	3
2496.3	-0.755618	-0.667328	3
2497.1	-0.759585	-0.672148	3
2497.9	-0.763441	-0.673686	3
2498.7	-0.767408	-0.679233	3
2499.5	-0.771458	-0.682239	3
2500.3	-0.775551	-0.686331	3
2501.1	-0.779487	-0.690199	3
2501.9	-0.783691	-0.693045	3
2502.7	-0.787569	-0.698481	3
2503.5	-0.791498	-0.701242	3
2504.3	-0.795362	-0.705821	3
2505.1	-0.79929	-0.709206	3
2505.9	-0.803574	-0.713148	3
2506.7	-0.807548	-0.716596	3
2507.5	-0.811599	-0.724008	3
2508.3	-0.815512	-0.724461	3
2509.1	-0.819608	-0.72873	3
2509.9	-0.823418	-0.73122	3
2510.7	-0.827496	-0.735082	3
2511.5	-0.83147	-0.737472	3
2512.3	-0.835651	-0.741733	3
2513.1	-0.839491	-0.743915	3
2513.9	-0.843328	-0.747898	3
2514.7	-0.847501	-0.750639	3
2515.5	-0.851613	-0.754058	3
2516.3	-0.855564	-0.757445	3
2517.1	-0.859439	-0.762621	3
2517.9	-0.863563	-0.764583	3
2518.7	-0.867289	-0.765785	3
2519.5	-0.871305	-0.769071	3
2520.3	-0.875615	-0.772055	3
2521.1	-0.879483	-0.774018	3
2521.9	-0.883709	-0.778879	3
2522.7	-0.887569	-0.779793	3
2523.5	-0.891536	-0.782622	3
2524.3	-0.895464	-0.784924	3
2525.1	-0.899469	-0.787546	3
2525.9	-0.903352	-0.794373	3
2526.7	-0.907643	-0.794047	3
2527.5	-0.911621	-0.794552	3
2528.3	-0.915691	-0.797855	3
2529.1	-0.919333	-0.800646	3
2529.84	-0.923235	-0.803957	3
2530.64	-0.920104	-0.798751	3
2531.44	-0.91595	-0.797456	3
2532.24	-0.912071	-0.793678	3
2533.04	-0.908086	-0.790304	3
2533.84	-0.90402	-0.786979	3
2534.64	-0.900122	-0.785509	3
2535.44	-0.896029	-0.783678	3
2536.24	-0.892043	-0.779106	3
2537.04	-0.887809	-0.776279	3
2537.84	-0.883843	-0.77405	3
2538.64	-0.879937	-0.770713	3
2539.44	-0.875944	-0.765731	3
2540.24	-0.872015	-0.763401	3
2541.04	-0.86793	-0.761642	3
2541.84	-0.86399	-0.758262	3
2542.64	-0.860119	-0.755442	3
2543.44	-0.856068	-0.751772	3
2544.24	-0.852224	-0.750079	3
2545.04	-0.84791	-0.745836	3
2545.84	-0.843962	-0.74175	3
2546.64	-0.840186	-0.738062	3
2547.44	-0.836242	-0.735761	3
2548.24	-0.831978	-0.730415	3
2549.04	-0.828019	-0.729144	3
2549.84	-0.824193	-0.724328	3
2550.64	-0.820189	-0.721768	3
2551.44	-0.816252	-0.718035	3
2552.24	-0.812034	-0.715239	3
2553.04	-0.807987	-0.710709	3
2553.84	-0.804058	-0.707112	3
2554.64	-0.799855	-0.705729	3
2555.44	-0.795923	-0.699752	3
2556.24	-0.792021	-0.695202	3
2557.04	-0.788134	-0.69203	3
2557.84	-0.78403	-0.688935	3
2558.64	-0.780186	-0.684377	3
2559.44	-0.776185	-0.680902	3
2560.24	-0.772016	-0.675794	3
2561.04	-0.768019	-0.672563	3
2561.84	-0.764098	-0.66819	3
2562.64	-0.759978	-0.664723	3
2563.44	-0.756149	-0.660505	3
2564.24	-0.752228	-0.657322	3
2565.04	-0.748097	-0.652649	3
2565.84	-0.744276	-0.649204	3
2566.64	-0.740011	-0.644381	3
2567.44	-0.736056	-0.640362	3
2568.24	-0.732105	-0.636557	3
2569.04	-0.728039	-0.63315	3
2569.84	-0.723954	-0.628529	3
2570.64	-0.719949	-0.623558	3
2571.44	-0.716051	-0.621245	3
2572.24	-0.712042	-0.61599	3
2573.04	-0.707927	-0.611955	3
2573.84	-0.704067	-0.607879	3
2574.64	-0.69994	-0.602935	3
2575.44	-0.696179	-0.599321	3
2576.24	-0.692144	-0.595393	3
2577.04	-0.688002	-0.590903	3
2577.84	-0.684069	-0.58586	3
2578.64	-0.680206	-0.581959	3
2579.44	-0.67596	-0.577955	3
2580.24	-0.672055	-0.573846	3
2581.04	-0.667992	-0.570054	3
2581.84	-0.664217	-0.565264	3
2582.64	-0.659979	-0.560824	3
2583.44	-0.655921	-0.556099	3
2584.24	-0.652221	-0.551974	3
2585.04	-0.648174	-0.547917	3
2585.84	-0.64407	-0.545793	3
2586.64	-0.639974	-0.537868	3
2587.44	-0.636015	-0.533988	3
2588.24	-0.63214	-0.530031	3
2589.04	-0.627925	-0.525936	3
2589.84	-0.624305	-0.521586	3
2590.64	-0.620091	-0.517512	3
2591.44	-0.616086	-0.514712	3
2592.24	-0.612035	-0.510681	3
2593.04	-0.608084	-0.506412	3
2593.84	-0.60393	-0.503787	3
2594.64	-0.600166	-0.499824	3
2595.44	-0.596081	-0.496434	3
2596.24	-0.592198	-0.493942	3
2597.04	-0.587865	-0.490925	3
2597.84	-0.584089	-0.488295	3
2598.64	-0.580096	-0.485697	3
2599.44	-0.576091	-0.484002	3
2600.24	-0.572074	-0.481807	3
2601.04	-0.568073	-0.481214	3
2601.84	-0.56403	-0.479559	3
2602.64	-0.56009	-0.477087	3
2603.44	-0.55625	-0.476259	3
2604.24	-0.552172	-0.475497	3
2605.04	-0.548022	-0.475647	3
2605.84	-0.543933	-0.474139	3
2606.64	-0.540043	-0.474148	3
2607.44	-0.536214	-0.47398	3
2608.24	-0.532083	-0.473275	3
2609.04	-0.527761	-0.473598	3
2609.84	-0.523982	-0.473401	3
2610.64	-0.520038	-0.473068	3
2611.44	-0.515964	-0.472584	3
2612.24	-0.512074	-0.473168	3
2613.04	-0.508199	-0.472867	3
2613.84	-0.503915	-0.472283	3
2614.64	-0.500017	-0.47299	3
2615.44	-0.496284	-0.472151	3
2616.24	-0.492206	-0.471046	3
2617.04	-0.48798	-0.470688	3
2617.84	-0.484105	-0.469796	3
2618.64	-0.480047	-0.469173	3
2619.44	-0.476007	-0.467754	3
2620.24	-0.472022	-0.465724	3
2621.04	-0.468288	-0.463905	3
2621.84	-0.463932	-0.461392	3
2622.64	-0.460003	-0.4594	3
2623.44	-0.456124	-0.457934	3
2624.24	-0.452158	-0.454652	3
2625.04	-0.448122	-0.451543	3
2625.84	-0.444159	-0.448965	3
2626.64	-0.440223	-0.445976	3
2627.44	-0.436046	-0.442377	3
2628.24	-0.43208	-0.438997	3
2629.04	-0.428144	-0.433959	3
2629.84	-0.424043	-0.429728	3
2630.64	-0.419863	-0.425176	3
2631.44	-0.416072	-0.420215	3
2632.24	-0.411979	-0.415417	3
2633.04	-0.408016	-0.410155	3
2633.84	-0.404164	-0.404575	3
2634.64	-0.400155	-0.398644	3
2635.44	-0.395883	-0.393107	3
2636.24	-0.392172	-0.38636	3
2637.04	-0.388252	-0.379468	3
2637.84	-0.384186	-0.372833	3
2638.64	-0.38002	-0.36571	3
2639.44	-0.376241	-0.358777	3
2640.24	-0.372114	-0.35153	3
2641.04	-0.368277	-0.343394	3
2641.84	-0.364165	-0.335656	3
2642.64	-0.360061	-0.327434	3
2643.44	-0.35614	-0.318725	3
2644.24	-0.352044	-0.310382	3
2645.04	-0.348195	-0.301566	3
2645.84	-0.34408	-0.292577	3
2646.64	-0.339941	-0.283528	3
2647.44	-0.336139	-0.27434	3
2648.24	-0.331947	-0.265151	3
2649.04	-0.328144	-0.255399	3
2649.84	-0.324063	-0.245806	3
2650.64	-0.320073	-0.236261	3
2651.44	-0.316092	-0.226375	3
2652.24	-0.312041	-0.216626	3
2653.04	-0.30796	-0.206972	3
2653.84	-0.304226	-0.196965	3
2654.64	-0.30008	-0.187397	3
2655.44	-0.296147	-0.177684	3
2656.24	-0.291879	-0.168123	3
2657.04	-0.288157	-0.15882	3
2657.84	-0.284156	-0.149594	3
2658.64	-0.280117	-0.140559	3
2659.44	-0.276226	-0.131851	3
2660.24	-0.272259	-0.123289	3
2661.04	-0.268281	-0.115102	3
2661.84	-0.264143	-0.107154	3
2662.64	-0.259898	-0.0995155	3
2663.44	-0.25619	-0.0921525	3
2664.24	-0.252182	-0.0852477	3
2665.04	-0.248116	-0.0787162	3
2665.84	-0.244287	-0.0724844	3
2666.64	-0.240129	-0.066632	3
2667.44	-0.236166	-0.0611169	3
2668.24	-0.231963	-0.0560049	3
2669.04	-0.22821	-0.0512395	3
2670.23	-0.221922	-0.0446142	3
2671.03	-0.218299	-0.04062	3
2671.83	-0.213981	-0.0369476	3
2672.63	-0.209953	-0.0335414	3
2673.43	-0.206185	-0.0303886	3
2674.23	-0.202207	-0.0274875	3
2675.03	-0.198149	-0.0248242	3
2675.83	-0.193873	-0.0223541	3
2676.63	-0.190108	-0.0200769	3
2677.43	-0.185962	-0.018001	3
2678.23	-0.182091	-0.0160777	3
2679.03	-0.178021	-0.0143242	3
2679.83	-0.174104	-0.0127168	3
2680.63	-0.169973	-0.0112556	3
2681.43	-0.166316	-0.00993097	3
2682.23	-0.162235	-0.00872879	3
2683.03	-0.158142	-0.00764386	3
2683.83	-0.154202	-0.00666842	3
2684.63	-0.150209	-0.00580939	3
2685.43	-0.14615	-0.0050373	3
2686.63	-0.140133	-0.00403373	3
2687.43	-0.136236	-0.0034674	3
2688.23	-0.13199	-0.00296021	3
2689.03	-0.128249	-0.00252148	3
2689.83	-0.124286	-0.00212713	3
2690.63	-0.120159	-0.00178361	3
2691.43	-0.116001	-0.00148446	3
2692.23	-0.11221	-0.00121555	3
2693.03	-0.108003	-0.000976847	3
2693.83	-0.103964	-0.000771119	3
2694.63	-0.100287	-0.000586111	3
2695.83	-0.0942016	-0.000350956	3
2696.63	-0.0900059	-0.000207886	3
2697.43	-0.0861232	-9.08348e-05	3
2698.63	-0.0801904	8.0513e-05	3
2699.83	-0.0740284	0.000224142	3
2700.63	-0.070203	0.000304905	3
2701.43	-0.0661218	0.000395221	3
2702.23	-0.0620864	0.000463532	3
2703.03	-0.058219	0.000531675	3
2703.83	-0.0538667	0.000594011	3
2704.63	-0.049942	0.000661354	3
2705.43	-0.0460479	0.000721266	3
2706.23	-0.0422377	0.000777822	3
2707.03	-0.0380496	0.000823691	3
2707.83	-0.0340562	0.000880053	3
2708.63	-0.0300628	0.000932131	3
2709.43	-0.0259968	0.000980629	3
2710.23	-0.0221294	0.00102296	3
2711.43	-0.0162347	0.00110165	3
2712.23	-0.0122184	0.00114977	3
2713.03	-0.00829756	0.00119356	3
2713.83	-0.00409035	0.00123398	3
2714.63	-0.000116034	0.00128445	3
2715.43	0.00398045	0.00133041	3
2716.23	0.00797005	0.00137453	3
2717.03	0.0117611	0.00141857	3
2717.83	0.0159454	0.00146536	3
2718.63	0.0196563	0.00151111	3
2719.43	0.0238673	0.00155786	3
2720.23	0.0279829	0.00160363	3
2721.03	0.0317969	0.00165433	3
2721.83	0.0358552	0.001699	3
2722.63	0.0398944	0.00174905	3
2723.43	0.0440329	0.00179995	3
2724.23	0.0480339	0.00185705	3
2725.03	0.0519472	0.00190719	3
2725.83	0.0559406	0.00196535	3
2726.63	0.0598653	0.00202676	3
2727.43	0.0639198	0.00208857	3
2728.23	0.067959	0.00215911	3
2729.03	0.0718951	0.00223386	3
2729.83	0.0758236	0.00231255	3
2729.83	0.075858	0.00232473	3